sessionState,sensorTimeMicros,phoneTimeMs,sampleNumber,aX,aY,aZ,gX,gY,gZ,batteryCharge,batteryVoltage,rssi
100,0,1773659041315,0,0.000854,0.000000,-0.000244,4.882812,35.400391,50.048828,91,0.000000,0
100,0,1773659041316,0,0.000854,0.000000,-0.000244,1.220703,37.841797,-1.937433,91,0.000000,0
100,0,1773659041316,0,0.000854,0.000000,-0.000122,2.441406,39.062500,-1.916127,91,0.000000,0
100,0,1773659041362,0,0.000977,0.000000,-0.000122,14.648438,37.841797,50.048828,91,0.000000,0
100,0,1773659041365,0,0.000977,-0.000122,-0.000122,15.869141,35.400391,-1.830906,91,0.000000,0
100,0,1773659041366,0,0.000977,-0.000122,-0.000122,20.751953,37.841797,-1.809601,91,0.000000,0
100,0,1773659041412,0,0.000977,-0.000122,-0.000122,29.296875,40.283203,43.945312,91,0.000000,0
100,0,1773659041413,0,0.000977,-0.000122,-0.000122,32.958984,43.945312,42.724609,91,0.000000,0
100,0,1773659041414,0,0.000977,-0.000122,-0.000122,36.621094,43.945312,42.724609,91,0.000000,0
100,0,1773659041459,0,0.000977,-0.000122,-0.000122,39.062500,41.503906,-1.745685,91,0.000000,0
100,0,1773659041462,0,0.000977,-0.000122,-0.000122,45.166016,46.386719,43.945312,91,0.000000,0
100,0,1773659041462,0,0.000977,0.000000,-0.000122,51.269531,47.607422,-2.129180,91,0.000000,0
100,0,1773659041509,0,0.000977,-0.000122,-0.000122,36.621094,48.828125,-1.916127,91,0.000000,0
100,0,1773659041510,0,0.001099,0.000000,-0.000122,34.179688,54.931641,61.035156,91,0.000000,0
100,0,1773659041510,0,0.001099,0.000000,-0.000122,31.738281,57.373047,86.669922,91,0.000000,0
100,0,1773659041655,0,0.001099,0.000000,-0.000122,19.531250,67.138672,76.904297,91,0.000000,0
100,0,1773659041655,0,0.001099,-0.000122,-0.000122,18.310547,75.683594,-2.533981,91,0.000000,0
100,0,1773659041657,0,0.001099,-0.000122,-0.000122,19.531250,79.345703,-2.640507,91,0.000000,0
100,0,1773659041704,0,0.001221,-0.000244,-0.000122,36.621094,86.669922,100.097656,91,0.000000,0
100,0,1773659041705,0,0.001343,-0.000122,-0.000122,75.683594,100.097656,103.759766,91,0.000000,0
100,0,1773659041707,0,0.001465,0.000122,-0.000732,63.476562,112.304688,-3.748382,91,0.000000,0
100,0,1773659041752,0,0.001709,-0.000610,0.000000,52.490234,113.525391,-3.812298,91,0.000000,0
100,0,1773659041754,0,0.001587,0.000000,-0.000488,50.048828,134.277344,120.849609,91,0.000000,0
100,0,1773659041756,0,0.001587,0.000000,-0.000244,41.503906,139.160156,97.656250,91,0.000000,0
100,0,1773659041801,0,0.000610,0.000000,-0.000732,37.841797,111.083984,-2.150486,91,0.000000,0
100,0,1773659041803,0,0.000610,-0.000732,0.000122,108.642578,96.435547,45.166016,91,0.000000,0
100,0,1773659041803,0,0.000366,-0.000610,-0.000122,-8.544922,54.931641,84.228516,91,0.000000,0
100,0,1773659041850,0,0.000122,0.000244,-0.000610,46.386719,-2.441406,-0.701726,91,0.000000,0
100,0,1773659041852,0,0.000000,0.000488,-0.000366,29.296875,-24.414062,-67.138672,91,0.000000,0
100,0,1773659041853,0,0.000000,0.000244,-0.000366,36.621094,-48.828125,-91.552734,91,0.000000,0
100,0,1773659041898,0,0.000000,0.000122,-0.000244,34.179688,-108.642578,-112.304688,91,0.000000,0
100,0,1773659041899,0,0.000122,0.000122,-0.000244,8.544922,-159.912109,-142.822266,91,0.000000,0
100,0,1773659041902,0,0.000122,0.000122,-0.000244,0.000000,-183.105469,1.727077,91,0.000000,0
100,0,1773659041996,0,0.000366,0.000122,-0.000244,-29.296875,-227.050781,-183.105469,91,0.000000,0
100,0,1773659041997,0,0.000610,0.000122,-0.000122,-47.607422,-250.244141,-198.974609,91,0.000000,0
100,0,1773659041998,0,0.000610,0.000122,-0.000122,-58.593750,-266.113281,2.536678,91,0.000000,0
100,0,1773659042045,0,0.000977,0.000000,-0.000122,-92.773438,-289.306641,-211.181641,91,0.000000,0
100,0,1773659042046,0,0.001465,-0.000366,-0.000122,-123.291016,-285.644531,-225.830078,91,0.000000,0
100,0,1773659042047,0,0.001587,-0.000366,-0.000122,-129.394531,-288.085938,2.941478,92,0.000000,0
100,0,1773659042093,0,0.001831,-0.000732,0.000000,-155.029297,-279.541016,-212.402344,92,0.000000,0
100,0,1773659042095,0,0.001831,-0.001221,0.000244,-124.511719,-245.361328,2.472762,92,0.000000,0
100,0,1773659042096,0,0.001831,-0.001343,0.000366,-79.345703,-217.285156,-191.650391,92,0.000000,0
100,0,1773659042145,0,0.001831,-0.001221,0.000244,-25.634766,-170.898438,-155.029297,92,0.000000,0
100,0,1773659042146,0,0.001709,-0.001465,0.000854,-19.531250,-95.214844,-97.656250,92,0.000000,0
100,0,1773659042146,0,0.001587,-0.001465,0.000854,-9.765625,-76.904297,0.171791,92,0.000000,0
100,0,1773659042191,0,0.001587,-0.001099,0.000854,-23.193359,-29.296875,4.882812,92,0.000000,0
100,0,1773659042192,0,0.001465,-0.001099,0.000977,-39.062500,20.751953,69.580078,92,0.000000,0
100,0,1773659042193,0,0.001587,-0.000977,0.001099,-47.607422,45.166016,-2.725729,92,0.000000,0
100,0,1773659042240,0,0.001831,0.000000,0.000732,-35.400391,131.835938,-2.704423,92,0.000000,0
100,0,1773659042241,0,0.001221,0.001587,-0.000610,-180.664062,90.332031,-3.684466,92,0.000000,0
100,0,1773659042242,0,0.001465,-0.000610,0.000000,-330.810547,21.972656,-4.856257,92,0.000000,0
100,0,1773659042288,0,0.001221,-0.000854,0.000000,-51.269531,53.710938,-3.620550,92,0.000000,0
100,0,1773659042290,0,0.000122,0.000610,-0.000366,-17.089844,26.855469,137.939453,92,0.000000,0
100,0,1773659042291,0,0.000854,0.000000,0.000000,-144.042969,9.765625,134.277344,92,0.000000,0
100,0,1773659042337,0,0.001221,-0.000732,0.000000,2.441406,52.490234,73.242188,92,0.000000,0
100,0,1773659042339,0,0.000854,0.000000,-0.000122,51.269531,72.021484,53.710938,92,0.000000,0
100,0,1773659042341,0,0.000854,0.000000,-0.000244,35.400391,56.152344,54.931641,92,0.000000,0
100,0,1773659042386,0,0.000854,0.000000,-0.000122,12.207031,56.152344,-1.980043,92,0.000000,0
100,0,1773659042387,0,0.000854,0.000000,-0.000122,-50.048828,30.517578,62.255859,92,0.000000,0
100,0,1773659042388,0,0.000854,0.000000,-0.000122,-61.035156,21.972656,62.255859,92,0.000000,0
100,0,1773659042435,0,0.000977,-0.000244,-0.000122,-10.986328,31.738281,46.386719,92,0.000000,0
100,0,1773659042436,0,0.000977,-0.000244,-0.000122,40.283203,40.283203,-1.553937,92,0.000000,0
100,0,1773659042437,0,0.000854,0.000000,-0.000244,43.945312,39.062500,29.296875,92,0.000000,0
100,0,1773659042532,0,0.000977,0.000000,-0.000122,15.869141,36.621094,34.179688,92,0.000000,0
100,0,1773659042534,0,0.000854,0.000000,-0.000244,0.000000,36.621094,37.841797,92,0.000000,0
100,0,1773659042535,0,0.000977,-0.000122,-0.000122,14.648438,41.503906,36.621094,92,0.000000,0
100,0,1773659042581,0,0.000854,0.000000,-0.000122,36.621094,52.490234,-1.617853,92,0.000000,0
100,0,1773659042582,0,0.000977,0.000000,-0.000122,19.531250,48.828125,-1.809601,92,0.000000,0
100,0,1773659042583,0,0.000977,-0.000122,-0.000122,10.986328,53.710938,58.593750,92,0.000000,0
100,0,1773659042630,0,0.000977,-0.000122,-0.000122,10.986328,52.490234,59.814453,92,0.000000,0
100,0,1773659042630,0,0.001099,-0.000122,0.000000,15.869141,53.710938,58.593750,92,0.000000,0
100,0,1773659042631,0,0.000977,-0.000122,0.000000,17.089844,52.490234,-2.022654,92,0.000000,0
100,0,1773659042678,0,0.000977,-0.000122,0.000000,19.531250,56.152344,61.035156,92,0.000000,0
100,0,1773659042680,0,0.000977,-0.000122,0.000000,14.648438,58.593750,-2.107875,92,0.000000,0
100,0,1773659042680,0,0.001099,-0.000122,0.000000,10.986328,61.035156,-2.150486,92,0.000000,0
100,0,1773659042776,0,0.001099,-0.000122,0.000000,14.648438,69.580078,72.021484,92,0.000000,0
100,0,1773659042777,0,0.001221,0.000000,0.000000,17.089844,79.345703,81.787109,92,0.000000,0
100,0,1773659042778,0,0.001221,0.000000,0.000000,15.869141,89.111328,-2.555286,92,0.000000,0
100,0,1773659042825,0,0.001221,0.000000,-0.000122,20.751953,101.318359,-2.747034,92,0.000000,0
100,0,1773659042826,0,0.001587,0.000122,-0.000732,162.353516,147.705078,-3.215750,92,0.000000,0
100,0,1773659042873,0,0.001709,0.000244,-0.000854,180.664062,145.263672,-3.322276,92,0.000000,0
100,0,1773659042875,0,0.001831,0.000366,-0.001099,174.560547,151.367188,-3.641856,92,0.000000,0
100,0,1773659042875,0,0.001709,0.000000,-0.000366,87.890625,117.187500,-4.067962,92,0.000000,0
100,0,1773659042922,0,0.001831,0.000000,-0.000732,115.966797,140.380859,-3.279666,92,0.000000,0
100,0,1773659042924,0,0.000854,0.000366,-0.001099,73.242188,126.953125,-2.171791,92,0.000000,0
100,0,1773659042925,0,0.000366,0.000366,-0.000244,92.773438,80.566406,23.193359,92,0.000000,0
100,0,1773659042971,0,0.000854,-0.001099,0.000122,97.656250,61.035156,111.083984,92,0.000000,0
100,0,1773659042972,0,0.000488,0.000000,-0.000366,108.642578,13.427734,-1.617853,92,0.000000,0
100,0,1773659042973,0,0.000122,0.000366,-0.000610,140.380859,4.882812,-0.957389,92,0.000000,0
100,0,1773659043020,0,0.000000,0.000854,-0.000366,76.904297,-14.648438,0.022654,92,0.000000,0
100,0,1773659043021,0,0.000000,0.000244,-0.000244,26.855469,-106.201172,0.384844,92,0.000000,0
100,0,1773659043022,0,0.000000,0.000122,-0.000122,7.324219,-134.277344,0.470065,92,0.000000,0
100,0,1773659043068,0,0.000122,0.000122,-0.000122,-32.958984,-186.767578,-104.980469,92,0.000000,0
100,0,1773659043070,0,0.000122,0.000122,-0.000122,-65.917969,-224.609375,1.151834,92,0.000000,0
100,0,1773659043070,0,0.000244,0.000244,-0.000122,-84.228516,-245.361328,1.386192,92,0.000000,0
100,0,1773659043117,0,0.000488,0.000122,-0.000122,-130.615234,-280.761719,1.940130,92,0.000000,0
100,0,1773659043119,0,0.000732,0.000000,-0.000122,-119.628906,-306.396484,2.451457,92,0.000000,0
100,0,1773659043120,0,0.000854,0.000000,-0.000122,-126.953125,-312.500000,-212.402344,92,0.000000,0
100,0,1773659043166,0,0.001099,0.000000,-0.000122,-117.187500,-313.720703,-236.816406,92,0.000000,0
100,0,1773659043168,0,0.001221,-0.000122,-0.000122,-78.125000,-303.955078,3.388889,92,0.000000,0
100,0,1773659043169,0,0.001343,-0.000122,-0.000122,-63.476562,-305.175781,3.474111,92,0.000000,0
100,0,1773659043215,0,0.001465,-0.000122,-0.000122,-57.373047,-313.720703,3.580637,92,0.000000,0
100,0,1773659043216,0,0.001587,-0.000122,-0.000244,-31.738281,-323.486328,3.601943,92,0.000000,0
100,0,1773659043217,0,0.001709,0.000000,-0.000244,-32.958984,-333.251953,3.516721,92,0.000000,0
100,0,1773659043263,0,0.001831,-0.000122,-0.000122,-87.890625,-343.017578,3.197142,92,0.000000,0
100,0,1773659043264,0,0.001831,-0.000366,0.000122,-79.345703,-284.423828,2.877563,92,0.000000,0
100,0,1773659043265,0,0.001831,-0.000122,0.000366,-72.021484,-267.333984,2.728426,92,0.000000,0
100,0,1773659043313,0,0.001831,-0.000244,0.000488,-150.146484,-168.457031,-184.326172,92,0.000000,0
100,0,1773659043313,0,0.001465,-0.001831,0.000366,-238.037109,-131.835938,-107.421875,92,0.000000,0
100,0,1773659043314,0,0.001465,-0.001831,0.000732,-167.236328,-107.421875,-67.138672,92,0.000000,0
100,0,1773659043362,0,0.001343,-0.001709,0.000977,0.000000,-39.062500,20.751953,92,0.000000,0
100,0,1773659043363,0,0.001465,-0.001343,0.001099,26.855469,48.828125,106.201172,92,0.000000,0
100,0,1773659043364,0,0.001587,-0.001221,0.000977,32.958984,93.994141,140.380859,92,0.000000,0
100,0,1773659043410,0,0.001587,0.000854,0.000000,34.179688,166.015625,111.083984,92,0.000000,0
100,0,1773659043410,0,0.001587,0.001831,0.000000,75.683594,62.255859,-1.830906,92,0.000000,0
100,0,1773659043412,0,0.001831,0.001831,0.000488,-209.960938,142.822266,152.587891,92,0.000000,0
100,0,1773659043459,0,0.001831,-0.001831,0.000000,-131.835938,63.476562,217.285156,92,0.000000,0
100,0,1773659043461,0,0.001099,0.000122,-0.000366,28.076172,70.800781,-4.877563,92,0.000000,0
100,0,1773659043461,0,0.000732,0.000366,-0.000488,-128.173828,37.841797,253.906250,92,0.000000,0
100,0,1773659043507,0,0.000732,-0.000610,-0.000122,-181.884766,29.296875,-4.302320,92,0.000000,0
100,0,1773659043508,0,0.001099,-0.000854,-0.000244,-36.621094,61.035156,123.291016,92,0.000000,0
100,0,1773659043508,0,0.001099,-0.000488,-0.000244,48.828125,93.994141,-2.384844,92,0.000000,0
100,0,1773659043557,0,0.000977,-0.000122,-0.000244,140.380859,115.966797,52.490234,92,0.000000,0
100,0,1773659043557,0,0.000732,0.000366,-0.000122,63.476562,80.566406,-1.724380,92,0.000000,0
100,0,1773659043558,0,0.000732,0.000366,-0.000122,3.662109,52.490234,-1.852211,92,0.000000,0
100,0,1773659043604,0,0.000854,0.000000,-0.000244,-35.400391,19.531250,56.152344,92,0.000000,0
100,0,1773659043606,0,0.000854,0.000000,-0.000244,-30.517578,19.531250,-1.873517,92,0.000000,0
100,0,1773659043607,0,0.000977,-0.000122,-0.000244,-7.324219,19.531250,-1.724380,92,0.000000,0
100,0,1773659043653,0,0.000854,-0.000366,-0.000366,57.373047,37.841797,17.089844,92,0.000000,0
100,0,1773659043655,0,0.000854,0.000000,-0.000244,75.683594,43.945312,-1.149137,92,0.000000,0
100,0,1773659043656,0,0.000854,0.000000,-0.000244,64.697266,42.724609,-1.213053,92,0.000000,0
100,0,1773659043702,0,0.000854,0.000122,-0.000122,12.207031,29.296875,-1.511327,92,0.000000,0
100,0,1773659043704,0,0.000854,-0.000122,-0.000244,-3.662109,28.076172,-1.575243,92,0.000000,0
100,0,1773659043705,0,0.000854,-0.000122,-0.000244,21.972656,36.621094,-1.511327,92,0.000000,0
100,0,1773659043799,0,0.000854,0.000000,-0.000244,36.621094,46.386719,30.517578,92,0.000000,0
100,0,1773659043848,0,0.000854,0.000000,-0.000122,31.738281,52.490234,36.621094,92,0.000000,0
100,0,1773659043850,0,0.000854,0.000000,-0.000122,28.076172,56.152344,-1.724380,92,0.000000,0
100,0,1773659043850,0,0.000977,0.000000,-0.000122,13.427734,63.476562,-1.916127,92,0.000000,0
100,0,1773659043897,0,0.000977,0.000000,-0.000122,18.310547,75.683594,-2.214401,92,0.000000,0
100,0,1773659043899,0,0.001099,0.000000,-0.000122,-1.220703,78.125000,-2.448760,92,0.000000,0
100,0,1773659043900,0,0.001221,0.000000,-0.000122,-7.324219,90.332031,-2.768339,92,0.000000,0
100,0,1773659043946,0,0.001221,0.000000,0.000000,-9.765625,97.656250,-2.938781,92,0.000000,0
100,0,1773659043947,0,0.001221,-0.000122,-0.000122,0.000000,111.083984,-3.194445,92,0.000000,0
100,0,1773659043948,0,0.001221,-0.000244,-0.000244,17.089844,114.746094,-3.279666,92,0.000000,0
100,0,1773659043995,0,0.001343,-0.000244,-0.000244,57.373047,123.291016,-3.386192,92,0.000000,0
100,0,1773659043995,0,0.001587,0.000000,-0.000366,124.511719,137.939453,-3.450108,92,0.000000,0
100,0,1773659043997,0,0.001587,0.000000,-0.000366,142.822266,145.263672,-3.471413,92,0.000000,0
100,0,1773659044043,0,0.001831,0.000244,-0.000732,201.416016,162.353516,-3.386192,92,0.000000,0
100,0,1773659044045,0,0.001831,0.000488,-0.001099,217.285156,173.339844,-3.492719,92,0.000000,0
100,0,1773659044045,0,0.001709,0.000610,-0.001099,180.664062,170.898438,153.808594,92,0.000000,0
100,0,1773659044092,0,0.001587,0.000000,-0.000610,95.214844,140.380859,167.236328,92,0.000000,0
100,0,1773659044093,0,0.001709,-0.000366,-0.000244,126.953125,130.615234,-2.981392,92,0.000000,0
100,0,1773659044095,0,0.001587,-0.000122,-0.000488,122.070312,155.029297,87.890625,92,0.000000,0
100,0,1773659044142,0,0.000977,0.000000,-0.000732,79.345703,135.498047,-1.511327,92,0.000000,0
100,0,1773659044142,0,0.000122,0.000366,-0.000366,67.138672,57.373047,-1.000000,92,0.000000,0
100,0,1773659044146,0,0.000366,0.000000,0.000244,148.925781,68.359375,-0.424757,92,0.000000,0
100,0,1773659044190,0,0.000488,-0.000488,-0.000122,0.000000,19.531250,26.855469,92,0.000000,0
100,0,1773659044191,0,0.000000,0.000488,-0.000488,76.904297,-25.634766,-0.019957,92,0.000000,0
100,0,1773659044191,0,0.000000,0.000854,-0.000366,53.710938,-31.738281,0.406149,92,0.000000,0
100,0,1773659044239,0,0.000000,0.000488,-0.000244,-32.958984,-91.552734,1.173139,92,0.000000,0
100,0,1773659044240,0,0.000122,0.000000,-0.000122,-62.255859,-144.042969,-131.835938,92,0.000000,0
100,0,1773659044245,0,0.000122,0.000122,-0.000122,-74.462891,-162.353516,1.450108,92,0.000000,0
100,0,1773659044336,0,0.000122,0.000122,-0.000244,-87.890625,-202.636719,-168.457031,92,0.000000,0
100,0,1773659044337,0,0.000366,0.000122,-0.000244,-117.187500,-233.154297,-191.650391,92,0.000000,0
100,0,1773659044338,0,0.000488,0.000122,-0.000244,-129.394531,-249.023438,2.579288,92,0.000000,0
100,0,1773659044385,0,0.000732,0.000000,-0.000244,-142.822266,-274.658203,2.984089,92,0.000000,0
100,0,1773659044386,0,0.001099,0.000000,-0.000244,-187.988281,-310.058594,-249.023438,92,0.000000,0
100,0,1773659044387,0,0.001587,-0.000122,-0.000244,-179.443359,-291.748047,-290.527344,92,0.000000,0
100,0,1773659044435,0,0.001831,-0.000122,-0.000366,-173.339844,-295.410156,-301.513672,92,0.000000,0
100,0,1773659044437,0,0.001831,-0.000366,-0.000610,-172.119141,-310.058594,-289.306641,92,0.000000,0
100,0,1773659044438,0,0.001831,-0.000488,-0.000610,-184.326172,-312.500000,3.772385,92,0.000000,0
100,0,1773659044484,0,0.001831,-0.000610,0.000000,-125.732422,-252.685547,-250.244141,92,0.000000,0
100,0,1773659044485,0,0.001831,-0.000122,0.000488,-136.718750,-184.326172,-213.623047,92,0.000000,0
100,0,1773659044486,0,0.001831,-0.000854,0.000122,-166.015625,-167.236328,2.536678,92,0.000000,0
100,0,1773659044531,0,0.001099,-0.001831,0.000122,-97.656250,-120.849609,-126.953125,92,0.000000,0
100,0,1773659044581,0,0.001221,-0.001465,0.000854,109.863281,-28.076172,-29.296875,92,0.000000,0
100,0,1773659044582,0,0.001099,-0.000854,0.000732,54.931641,-30.517578,-1.447411,92,0.000000,0
100,0,1773659044583,0,0.001465,-0.001099,0.000732,23.193359,65.917969,-2.981392,92,0.000000,0
100,0,1773659044629,0,0.001343,-0.000610,0.000488,3.662109,123.291016,-4.174488,92,0.000000,0
100,0,1773659044630,0,0.001099,0.001831,-0.000488,125.732422,147.705078,74.462891,92,0.000000,0
100,0,1773659044631,0,0.001343,0.000610,0.000000,-217.285156,62.255859,-3.343582,92,0.000000,0
100,0,1773659044677,0,0.001587,-0.000244,-0.000122,-30.517578,40.283203,183.105469,92,0.000000,0
100,0,1773659044678,0,0.000854,0.000000,-0.000610,-167.236328,13.427734,231.933594,92,0.000000,0
100,0,1773659044679,0,0.000854,-0.000488,-0.000366,-257.568359,-23.193359,270.996094,92,0.000000,0
100,0,1773659044727,0,0.001465,-0.000854,0.000000,-80.566406,90.332031,125.732422,92,0.000000,0
100,0,1773659044728,0,0.000610,0.000000,-0.000366,68.359375,87.890625,-2.661813,92,0.000000,0
100,0,1773659044730,0,0.000732,0.000000,-0.000244,40.283203,97.656250,-2.214401,92,0.000000,0
100,0,1773659044776,0,0.000977,-0.000244,-0.000122,83.007812,95.214844,-1.958738,92,0.000000,0
100,0,1773659044777,0,0.000854,0.000244,-0.000122,80.566406,91.552734,39.062500,92,0.000000,0
100,0,1773659044779,0,0.000854,0.000366,-0.000122,29.296875,69.580078,42.724609,92,0.000000,0
100,0,1773659044825,0,0.000854,0.000244,0.000000,-24.414062,37.841797,57.373047,92,0.000000,0
100,0,1773659044827,0,0.000854,0.000122,-0.000122,-50.048828,32.958984,-2.086570,92,0.000000,0
100,0,1773659044828,0,0.000977,0.000000,-0.000122,-40.283203,36.621094,-1.980043,92,0.000000,0
100,0,1773659044873,0,0.000854,-0.000122,-0.000244,25.634766,64.697266,36.621094,92,0.000000,0
100,0,1773659044876,0,0.000854,0.000122,-0.000122,41.503906,64.697266,34.179688,92,0.000000,0
100,0,1773659044877,0,0.000854,0.000122,-0.000122,26.855469,62.255859,-1.681769,92,0.000000,0
100,0,1773659044922,0,0.000977,0.000244,0.000000,-20.751953,48.828125,-1.873517,92,0.000000,0
100,0,1773659044925,0,0.000977,0.000000,0.000000,-21.972656,48.828125,-1.852211,92,0.000000,0
100,0,1773659044926,0,0.000977,0.000000,-0.000122,-7.324219,51.269531,-1.830906,92,0.000000,0
100,0,1773659044971,0,0.000854,0.000000,-0.000122,-1.220703,57.373047,47.607422,92,0.000000,0
100,0,1773659044972,0,0.000977,0.000000,0.000000,-6.103516,57.373047,50.048828,92,0.000000,0
100,0,1773659044973,0,0.000977,0.000000,0.000000,-8.544922,58.593750,-1.894822,92,0.000000,0
100,0,1773659045020,0,0.000977,0.000000,0.000000,-6.103516,58.593750,52.490234,92,0.000000,0
100,0,1773659045023,0,0.000977,0.000000,0.000000,-1.220703,59.814453,52.490234,92,0.000000,0
100,0,1773659045023,0,0.000977,0.000000,0.000000,1.220703,61.035156,52.490234,92,0.000000,0
100,0,1773659045070,0,0.000977,0.000000,0.000000,9.765625,63.476562,-1.916127,92,0.000000,0
100,0,1773659045072,0,0.000977,0.000000,0.000000,9.765625,68.359375,52.490234,92,0.000000,0
100,0,1773659045073,0,0.000977,0.000000,0.000000,8.544922,69.580078,-1.937433,92,0.000000,0
100,0,1773659045117,0,0.001099,0.000000,0.000000,-4.882812,75.683594,57.373047,92,0.000000,0
100,0,1773659045119,0,0.001099,0.000000,0.000000,-8.544922,80.566406,-2.129180,92,0.000000,0
100,0,1773659045119,0,0.001099,0.000000,0.000000,-10.986328,87.890625,-2.214401,92,0.000000,0
100,0,1773659045166,0,0.001221,0.000122,0.000000,-13.427734,96.435547,80.566406,92,0.000000,0
100,0,1773659045168,0,0.001221,0.000000,0.000000,-21.972656,107.421875,96.435547,92,0.000000,0
100,0,1773659045169,0,0.001343,-0.000122,-0.000122,-10.986328,115.966797,-2.768339,92,0.000000,0
100,0,1773659045215,0,0.001343,0.000000,-0.000244,14.648438,131.835938,108.642578,92,0.000000,0
100,0,1773659045217,0,0.001465,0.000000,-0.000244,37.841797,144.042969,113.525391,92,0.000000,0
100,0,1773659045218,0,0.001587,0.000000,-0.000366,50.048828,153.808594,114.746094,92,0.000000,0
100,0,1773659045263,0,0.001709,0.000122,-0.000488,95.214844,175.781250,114.746094,92,0.000000,0
100,0,1773659045265,0,0.001709,0.000366,-0.000977,126.953125,190.429688,118.408203,92,0.000000,0
100,0,1773659045267,0,0.001709,0.000366,-0.001099,118.408203,187.988281,-3.215750,92,0.000000,0
100,0,1773659045313,0,0.001343,-0.000122,-0.000732,73.242188,151.367188,133.056641,92,0.000000,0
100,0,1773659045314,0,0.001709,-0.000488,-0.000122,53.710938,112.304688,-2.960087,92,0.000000,0
100,0,1773659045316,0,0.001587,-0.000366,-0.000366,46.386719,151.367188,83.007812,92,0.000000,0
100,0,1773659045362,0,0.000977,0.000000,-0.000610,20.751953,126.953125,-1.617853,92,0.000000,0
100,0,1773659045363,0,0.000244,0.000488,-0.000244,52.490234,83.007812,0.363539,92,0.000000,0
100,0,1773659045363,0,0.000610,-0.000854,0.000244,46.386719,90.332031,-1.127832,92,0.000000,0
100,0,1773659045413,0,0.000610,-0.000244,-0.000122,1.220703,48.828125,-13.427734,92,0.000000,0
100,0,1773659045415,0,0.000000,0.000610,-0.000488,8.544922,17.089844,-74.462891,92,0.000000,0
100,0,1773659045458,0,0.000000,0.000732,-0.000366,-39.062500,6.103516,-103.759766,92,0.000000,0
100,0,1773659045460,0,0.000000,0.000244,-0.000244,-139.160156,-45.166016,-129.394531,92,0.000000,0
100,0,1773659045462,0,0.000122,0.000000,-0.000244,-161.132812,-92.773438,1.684466,92,0.000000,0
100,0,1773659045507,0,0.000244,0.000000,-0.000366,-161.132812,-145.263672,2.344930,92,0.000000,0
100,0,1773659045508,0,0.000488,-0.000122,-0.000366,-174.560547,-179.443359,-213.623047,92,0.000000,0
100,0,1773659045510,0,0.000488,-0.000122,-0.000366,-180.664062,-194.091797,2.834952,92,0.000000,0
100,0,1773659045604,0,0.000732,-0.000122,-0.000366,-214.843750,-228.271484,2.984089,92,0.000000,0
100,0,1773659045654,0,0.001099,-0.000244,-0.000366,-242.919922,-233.154297,-230.712891,92,0.000000,0
100,0,1773659045657,0,0.001099,-0.000366,-0.000366,-252.685547,-230.712891,3.090615,92,0.000000,0
100,0,1773659045658,0,0.001221,-0.000488,-0.000488,-260.009766,-230.712891,3.111921,92,0.000000,0
100,0,1773659045702,0,0.001465,-0.000610,-0.000610,-281.982422,-258.789062,-231.933594,92,0.000000,0
100,0,1773659045703,0,0.001831,-0.000977,-0.000732,-269.775391,-289.306641,-203.857422,92,0.000000,0
100,0,1773659045704,0,0.001831,-0.001099,-0.000244,-120.849609,-257.568359,1.876214,92,0.000000,0
100,0,1773659045752,0,0.001831,-0.000122,0.000366,-40.283203,-159.912109,-155.029297,92,0.000000,0
100,0,1773659045753,0,0.001343,-0.001099,0.000000,-162.353516,-139.160156,-93.994141,92,0.000000,0
100,0,1773659045755,0,0.001343,-0.001465,0.000122,-140.380859,-120.849609,-0.105178,92,0.000000,0
100,0,1773659045800,0,0.001221,-0.001221,0.000610,-74.462891,-87.890625,23.193359,92,0.000000,0
100,0,1773659045802,0,0.001343,-0.001221,0.000854,-28.076172,-29.296875,86.669922,92,0.000000,0
100,0,1773659045803,0,0.001465,-0.001099,0.000732,8.544922,14.648438,98.876953,92,0.000000,0
100,0,1773659045849,0,0.001465,-0.000732,0.000122,64.697266,56.152344,106.201172,92,0.000000,0
100,0,1773659045851,0,0.001221,0.001465,-0.000610,28.076172,125.732422,74.462891,92,0.000000,0
100,0,1773659045852,0,0.000977,0.001831,-0.000488,37.841797,87.890625,-1.596548,92,0.000000,0
100,0,1773659045897,0,0.001587,0.000366,0.000488,-251.464844,24.414062,-3.705772,92,0.000000,0
100,0,1773659045899,0,0.001709,-0.001099,-0.000122,-111.083984,19.531250,175.781250,92,0.000000,0
100,0,1773659045900,0,0.001343,-0.000244,-0.000122,0.000000,15.869141,174.560547,92,0.000000,0
100,0,1773659045945,0,0.001343,-0.000244,-0.000122,-269.775391,-43.945312,-5.708469,92,0.000000,0
100,0,1773659045947,0,0.001343,-0.000610,0.000000,-191.650391,47.607422,-3.620550,92,0.000000,0
100,0,1773659045948,0,0.000732,-0.001099,-0.000366,-36.621094,89.111328,-3.364887,92,0.000000,0
100,0,1773659045995,0,0.000854,0.000122,-0.000244,65.917969,108.642578,-2.406149,92,0.000000,0
100,0,1773659045997,0,0.000854,0.000122,-0.000122,41.503906,61.035156,-2.214401,92,0.000000,0
100,0,1773659045998,0,0.000977,0.000000,-0.000122,37.841797,75.683594,-2.022654,92,0.000000,0
100,0,1773659046043,0,0.000854,0.000366,0.000000,7.324219,63.476562,58.593750,92,0.000000,0
100,0,1773659046044,0,0.000854,0.000000,0.000000,-67.138672,18.310547,63.476562,92,0.000000,0
100,0,1773659046045,0,0.000977,-0.000122,0.000000,-35.400391,30.517578,-1.980043,92,0.000000,0
100,0,1773659046142,0,0.000854,0.000000,-0.000244,28.076172,43.945312,-1.724380,92,0.000000,0
100,0,1773659046145,0,0.000854,0.000000,-0.000244,29.296875,42.724609,-1.617853,92,0.000000,0
100,0,1773659046145,0,0.000854,0.000000,-0.000244,31.738281,51.269531,36.621094,92,0.000000,0
100,0,1773659046190,0,0.000854,0.000122,-0.000122,-21.972656,35.400391,-1.873517,92,0.000000,0
100,0,1773659046191,0,0.000977,0.000000,0.000000,-3.662109,48.828125,-1.745685,92,0.000000,0
100,0,1773659046193,0,0.000977,0.000000,0.000000,-3.662109,47.607422,-1.745685,92,0.000000,0
100,0,1773659046287,0,0.000977,0.000000,0.000000,-1.220703,57.373047,-1.703074,92,0.000000,0
100,0,1773659046288,0,0.000854,0.000000,-0.000122,0.000000,59.814453,39.062500,92,0.000000,0
100,0,1773659046289,0,0.000977,0.000000,-0.000122,1.220703,58.593750,-1.660464,92,0.000000,0
100,0,1773659046384,0,0.000854,0.000000,0.000000,3.662109,59.814453,-1.639159,92,0.000000,0
100,0,1773659046387,0,0.000977,0.000000,0.000000,-6.103516,61.035156,39.062500,92,0.000000,0
100,0,1773659046388,0,0.000977,0.000000,0.000000,-10.986328,62.255859,40.283203,92,0.000000,0
100,0,1773659046432,0,0.001099,0.000000,0.000000,-19.531250,65.917969,45.166016,92,0.000000,0
100,0,1773659046435,0,0.001221,0.000000,0.000000,-34.179688,92.773438,-2.235707,92,0.000000,0
100,0,1773659046437,0,0.001221,0.000000,-0.000122,-28.076172,100.097656,73.242188,92,0.000000,0
100,0,1773659046482,0,0.001221,0.000000,0.000000,-17.089844,112.304688,80.566406,92,0.000000,0
100,0,1773659046484,0,0.001221,0.000000,-0.000122,0.000000,126.953125,85.449219,92,0.000000,0
100,0,1773659046531,0,0.001343,0.000000,-0.000122,4.882812,134.277344,-2.555286,92,0.000000,0
100,0,1773659046532,0,0.001465,0.000000,-0.000244,23.193359,151.367188,96.435547,92,0.000000,0
100,0,1773659046533,0,0.001587,0.000000,-0.000366,61.035156,163.574219,98.876953,92,0.000000,0
100,0,1773659046579,0,0.001709,0.000244,-0.000610,84.228516,167.236328,-2.704423,92,0.000000,0
100,0,1773659046628,0,0.001587,0.000488,-0.000977,56.152344,194.091797,106.201172,92,0.000000,0
100,0,1773659046629,0,0.001465,-0.000244,-0.000488,-14.648438,142.822266,125.732422,92,0.000000,0
100,0,1773659046630,0,0.001587,-0.000488,-0.000366,-3.662109,155.029297,107.421875,92,0.000000,0
100,0,1773659046677,0,0.001099,0.000000,-0.000366,-54.931641,135.498047,-1.980043,92,0.000000,0
100,0,1773659046678,0,0.000366,0.000366,-0.000122,-32.958984,102.539062,-36.621094,92,0.000000,0
100,0,1773659046679,0,0.000366,-0.000122,-0.000488,-41.503906,72.021484,-0.616505,92,0.000000,0
100,0,1773659046726,0,0.000000,0.000488,-0.000610,-67.138672,31.738281,0.299623,92,0.000000,0
100,0,1773659046728,0,0.000000,0.000122,-0.000366,-147.705078,-28.076172,-106.201172,92,0.000000,0
100,0,1773659046729,0,0.000122,0.000000,-0.000366,-153.808594,-48.828125,1.045308,92,0.000000,0
100,0,1773659046776,0,0.000244,0.000000,-0.000366,-142.822266,-83.007812,1.599245,92,0.000000,0
100,0,1773659046777,0,0.000244,-0.000122,-0.000366,-129.394531,-131.835938,2.323625,92,0.000000,0
100,0,1773659046779,0,0.000366,-0.000122,-0.000488,-126.953125,-151.367188,2.557983,92,0.000000,0
100,0,1773659046823,0,0.000610,-0.000122,-0.000488,-129.394531,-181.884766,2.856257,92,0.000000,0
100,0,1773659046826,0,0.000732,0.000000,-0.000366,-147.705078,-202.636719,-224.609375,92,0.000000,0
100,0,1773659046827,0,0.000854,-0.000122,-0.000366,-161.132812,-214.843750,-228.271484,92,0.000000,0
100,0,1773659046872,0,0.001099,-0.000244,-0.000488,-169.677734,-222.167969,-236.816406,92,0.000000,0
100,0,1773659046873,0,0.001221,-0.000244,-0.000488,-190.429688,-244.140625,-236.816406,92,0.000000,0
100,0,1773659046874,0,0.001221,-0.000244,-0.000488,-201.416016,-253.906250,-235.595703,92,0.000000,0
100,0,1773659046922,0,0.001465,-0.000244,-0.000610,-224.609375,-274.658203,3.090615,92,0.000000,0
100,0,1773659046925,0,0.001587,-0.000244,-0.000610,-240.478516,-286.865234,3.069310,92,0.000000,0
100,0,1773659046927,0,0.001709,-0.000244,-0.000732,-253.906250,-291.748047,3.005394,92,0.000000,0
100,0,1773659046970,0,0.001831,-0.000488,-0.000732,-286.865234,-291.748047,-213.623047,92,0.000000,0
100,0,1773659046972,0,0.001831,-0.000854,-0.000610,-274.658203,-284.423828,-198.974609,92,0.000000,0
100,0,1773659046973,0,0.001831,-0.000977,-0.000366,-247.802734,-275.878906,-187.988281,92,0.000000,0
100,0,1773659047019,0,0.001831,-0.000732,0.000122,-111.083984,-205.078125,2.344930,92,0.000000,0
100,0,1773659047022,0,0.001831,-0.000488,0.000122,-135.498047,-164.794922,1.769688,92,0.000000,0
100,0,1773659047022,0,0.001831,-0.000854,0.000122,-162.353516,-137.939453,1.322276,92,0.000000,0
100,0,1773659047067,0,0.001343,-0.001709,0.000244,-150.146484,-111.083984,-75.683594,92,0.000000,0
100,0,1773659047068,0,0.001221,-0.001587,0.000732,-75.683594,-84.228516,35.400391,92,0.000000,0
100,0,1773659047070,0,0.001343,-0.001465,0.000854,-34.179688,-46.386719,-2.193096,92,0.000000,0
100,0,1773659047116,0,0.001465,-0.001099,0.000732,15.869141,45.166016,-2.981392,92,0.000000,0
100,0,1773659047117,0,0.001709,0.000366,0.001343,46.386719,106.201172,-3.109224,92,0.000000,0
100,0,1773659047118,0,0.001465,0.000732,-0.000610,31.738281,114.746094,-2.448760,92,0.000000,0
100,0,1773659047165,0,0.001709,0.001831,0.000244,0.000000,76.904297,98.876953,92,0.000000,0
100,0,1773659047167,0,0.001831,-0.001099,0.000000,-134.277344,63.476562,180.664062,92,0.000000,0
100,0,1773659047168,0,0.001831,-0.000610,0.000244,13.427734,56.152344,187.988281,92,0.000000,0
100,0,1773659047213,0,0.001099,0.000610,-0.000366,-50.048828,54.931641,-4.344931,92,0.000000,0
100,0,1773659047214,0,0.000366,-0.000122,-0.000610,-190.429688,-19.531250,200.195312,92,0.000000,0
100,0,1773659047215,0,0.000610,-0.000610,-0.000488,-177.001953,9.765625,-4.259709,92,0.000000,0
100,0,1773659047262,0,0.000977,-0.000488,-0.000122,4.882812,67.138672,131.835938,92,0.000000,0
100,0,1773659047266,0,0.000854,0.000000,-0.000122,39.062500,76.904297,-2.683118,92,0.000000,0
100,0,1773659047267,0,0.000854,0.000000,-0.000122,43.945312,78.125000,-2.512676,92,0.000000,0
100,0,1773659047312,0,0.000854,0.000244,-0.000122,4.882812,58.593750,73.242188,92,0.000000,0
100,0,1773659047313,0,0.000854,0.000122,0.000000,-19.531250,41.503906,-2.278317,92,0.000000,0
100,0,1773659047315,0,0.000854,0.000122,-0.000122,-32.958984,31.738281,-2.257012,92,0.000000,0
100,0,1773659047408,0,0.000977,0.000000,0.000000,-21.972656,26.855469,64.697266,92,0.000000,0
100,0,1773659047411,0,0.000854,-0.000122,-0.000244,17.089844,35.400391,-1.809601,92,0.000000,0
100,0,1773659047457,0,0.000854,-0.000122,-0.000244,28.076172,39.062500,-1.681769,92,0.000000,0
100,0,1773659047459,0,0.000854,0.000000,-0.000122,34.179688,40.283203,-1.553937,92,0.000000,0
100,0,1773659047506,0,0.000854,0.000000,-0.000122,3.662109,40.283203,34.179688,92,0.000000,0
100,0,1773659047508,0,0.000854,0.000000,-0.000122,-3.662109,40.283203,36.621094,92,0.000000,0
100,0,1773659047509,0,0.000854,0.000000,-0.000122,-7.324219,42.724609,36.621094,92,0.000000,0
100,0,1773659047555,0,0.000854,0.000000,-0.000122,-7.324219,42.724609,35.400391,92,0.000000,0
100,0,1773659047557,0,0.000854,0.000000,-0.000122,-8.544922,48.828125,36.621094,92,0.000000,0
100,0,1773659047558,0,0.000977,-0.000122,0.000000,0.000000,50.048828,30.517578,92,0.000000,0
100,0,1773659047603,0,0.000977,0.000000,0.000000,13.427734,53.710938,25.634766,92,0.000000,0
100,0,1773659047606,0,0.000977,0.000000,0.000000,7.324219,48.828125,29.296875,92,0.000000,0
100,0,1773659047607,0,0.000977,0.000000,0.000000,4.882812,51.269531,31.738281,92,0.000000,0
100,0,1773659047702,0,0.000977,0.000000,0.000000,-2.441406,54.931641,-1.639159,92,0.000000,0
100,0,1773659047702,0,0.000977,0.000000,0.000000,-20.751953,62.255859,48.828125,92,0.000000,0
100,0,1773659047704,0,0.001099,0.000000,0.000000,-30.517578,61.035156,-1.958738,92,0.000000,0
100,0,1773659047749,0,0.001099,0.000000,0.000000,-21.972656,75.683594,-2.086570,92,0.000000,0
100,0,1773659047750,0,0.001221,-0.000122,-0.000122,-18.310547,113.525391,-2.555286,92,0.000000,0
100,0,1773659047753,0,0.001343,-0.000122,-0.000122,-6.103516,119.628906,-2.555286,92,0.000000,0
100,0,1773659047799,0,0.001343,0.000000,-0.000122,20.751953,129.394531,-2.576591,92,0.000000,0
100,0,1773659047802,0,0.001465,0.000122,-0.000244,30.517578,148.925781,-2.661813,92,0.000000,0
100,0,1773659047803,0,0.001465,0.000122,-0.000366,42.724609,150.146484,-2.747034,92,0.000000,0
100,0,1773659047847,0,0.001709,0.000366,-0.000732,64.697266,168.457031,108.642578,92,0.000000,0
100,0,1773659047848,0,0.001587,0.000244,-0.000977,53.710938,167.236328,126.953125,92,0.000000,0
100,0,1773659047850,0,0.001465,0.000000,-0.000854,29.296875,158.691406,135.498047,92,0.000000,0
100,0,1773659047896,0,0.001709,-0.000488,-0.000244,32.958984,133.056641,-3.364887,92,0.000000,0
100,0,1773659047898,0,0.001587,-0.000122,-0.000610,42.724609,146.484375,-3.237055,92,0.000000,0
100,0,1773659047899,0,0.001343,0.000000,-0.000610,17.089844,122.070312,-2.853560,92,0.000000,0
100,0,1773659047945,0,0.000732,0.000366,-0.000977,-8.544922,133.056641,-1.383495,92,0.000000,0
100,0,1773659047946,0,0.000854,-0.000488,0.000244,-26.855469,104.980469,-2.257012,92,0.000000,0
100,0,1773659047947,0,0.000854,-0.000610,0.000244,-36.621094,92.773438,-2.171791,92,0.000000,0
100,0,1773659048042,0,0.000244,0.000244,-0.000488,-1.220703,62.255859,-9.765625,92,0.000000,0
100,0,1773659048043,0,0.000000,0.000610,-0.000488,-57.373047,23.193359,-53.710938,92,0.000000,0
100,0,1773659048046,0,0.000000,0.000488,-0.000366,-104.980469,-18.310547,-64.697266,92,0.000000,0
100,0,1773659048092,0,0.000122,0.000000,-0.000244,-117.187500,-56.152344,-91.552734,92,0.000000,0
100,0,1773659048092,0,0.000488,0.000000,-0.000366,-172.119141,-181.884766,2.536678,92,0.000000,0
100,0,1773659048094,0,0.000610,-0.000122,-0.000366,-170.898438,-216.064453,2.749731,92,0.000000,0
100,0,1773659048188,0,0.000732,-0.000122,-0.000366,-177.001953,-222.167969,-230.712891,92,0.000000,0
100,0,1773659048189,0,0.000977,-0.000244,-0.000366,-179.443359,-227.050781,3.303668,92,0.000000,0
100,0,1773659048190,0,0.001099,-0.000244,-0.000366,-174.560547,-225.830078,-251.464844,92,0.000000,0
100,0,1773659048237,0,0.001099,-0.000366,-0.000366,-166.015625,-244.140625,-258.789062,92,0.000000,0
100,0,1773659048238,0,0.001831,-0.000488,-0.000488,-101.318359,-316.162109,-241.699219,92,0.000000,0
100,0,1773659048239,0,0.001831,-0.000610,-0.000366,-95.214844,-316.162109,-231.933594,92,0.000000,0
100,0,1773659048286,0,0.001831,-0.000732,0.000000,-46.386719,-283.203125,3.026700,92,0.000000,0
100,0,1773659048287,0,0.001831,-0.000122,0.000610,-12.207031,-203.857422,2.685815,92,0.000000,0
100,0,1773659048289,0,0.001831,-0.000366,0.000488,-63.476562,-194.091797,2.366236,92,0.000000,0
100,0,1773659048335,0,0.001831,-0.000977,0.000244,-84.228516,-146.484375,1.705772,92,0.000000,0
100,0,1773659048337,0,0.001465,-0.001709,0.000732,-68.359375,-113.525391,0.491370,92,0.000000,0
100,0,1773659048339,0,0.001343,-0.001709,0.000977,-19.531250,-79.345703,-0.211704,92,0.000000,0
100,0,1773659048383,0,0.001465,-0.001099,0.000977,35.400391,-25.634766,46.386719,92,0.000000,0
100,0,1773659048388,0,0.001709,-0.000732,0.000488,21.972656,42.724609,-2.597897,92,0.000000,0
100,0,1773659048388,0,0.001709,-0.000244,0.001343,-2.441406,108.642578,-3.130529,92,0.000000,0
100,0,1773659048432,0,0.001221,0.001831,-0.001221,80.566406,89.111328,30.517578,92,0.000000,0
100,0,1773659048432,0,0.001709,0.001099,0.000610,-274.658203,81.787109,-4.025351,92,0.000000,0
100,0,1773659048433,0,0.001709,-0.001221,0.000122,-311.279297,42.724609,-4.259709,92,0.000000,0
100,0,1773659048480,0,0.001587,-0.000610,0.000000,79.345703,67.138672,-4.302320,92,0.000000,0
100,0,1773659048481,0,0.000732,0.000732,-0.000610,-108.642578,34.179688,-4.813647,92,0.000000,0
100,0,1773659048482,0,0.000366,0.000000,-0.000732,-217.285156,6.103516,-4.877563,92,0.000000,0
100,0,1773659048529,0,0.001099,-0.000977,-0.000366,-86.669922,42.724609,156.250000,92,0.000000,0
100,0,1773659048530,0,0.000854,-0.000122,-0.000122,68.359375,98.876953,-2.384844,92,0.000000,0
100,0,1773659048532,0,0.000854,0.000000,-0.000122,87.890625,102.539062,-2.086570,92,0.000000,0
100,0,1773659048579,0,0.000977,0.000000,0.000000,141.601562,117.187500,-1.788296,92,0.000000,0
100,0,1773659048579,0,0.000732,0.000488,-0.000122,41.503906,64.697266,57.373047,92,0.000000,0
100,0,1773659048582,0,0.000732,0.000488,-0.000244,-29.296875,31.738281,70.800781,92,0.000000,0
100,0,1773659048627,0,0.000854,0.000000,-0.000122,-67.138672,7.324219,87.890625,92,0.000000,0
100,0,1773659048628,0,0.000854,0.000000,-0.000366,-62.255859,21.972656,80.566406,92,0.000000,0
100,0,1773659048630,0,0.000854,-0.000122,-0.000366,-43.945312,34.179688,-2.214401,92,0.000000,0
100,0,1773659048676,0,0.000854,-0.000366,-0.000366,31.738281,54.931641,-1.809601,92,0.000000,0
100,0,1773659048677,0,0.000854,0.000000,-0.000122,41.503906,58.593750,-1.681769,92,0.000000,0
100,0,1773659048679,0,0.000854,0.000122,0.000000,20.751953,52.490234,-1.766990,92,0.000000,0
100,0,1773659048725,0,0.000977,0.000122,0.000000,-14.648438,39.062500,-1.958738,92,0.000000,0
100,0,1773659048727,0,0.000977,0.000000,-0.000122,-28.076172,30.517578,56.152344,92,0.000000,0
100,0,1773659048729,0,0.000854,-0.000244,-0.000122,-9.765625,30.517578,50.048828,92,0.000000,0
100,0,1773659048773,0,0.000854,-0.000122,-0.000244,29.296875,40.283203,-1.617853,92,0.000000,0
100,0,1773659048777,0,0.000854,0.000000,-0.000122,34.179688,37.841797,-1.596548,92,0.000000,0
100,0,1773659048777,0,0.000977,0.000000,-0.000122,28.076172,39.062500,-1.639159,92,0.000000,0
100,0,1773659048822,0,0.000854,0.000000,-0.000122,14.648438,39.062500,41.503906,92,0.000000,0
100,0,1773659048822,0,0.000977,0.000000,-0.000122,18.310547,40.283203,45.166016,92,0.000000,0
100,0,1773659048827,0,0.000977,-0.000122,-0.000122,19.531250,43.945312,46.386719,92,0.000000,0
100,0,1773659048872,0,0.000977,0.000000,-0.000122,30.517578,47.607422,-1.852211,92,0.000000,0
100,0,1773659048872,0,0.000977,0.000000,-0.000122,32.958984,54.931641,-1.980043,92,0.000000,0
100,0,1773659048873,0,0.000977,0.000000,-0.000122,32.958984,56.152344,-2.065264,92,0.000000,0
100,0,1773659048919,0,0.001099,0.000000,-0.000244,30.517578,62.255859,-2.278317,92,0.000000,0
100,0,1773659048922,0,0.001099,0.000000,-0.000122,34.179688,74.462891,81.787109,92,0.000000,0
100,0,1773659048923,0,0.001221,0.000000,-0.000122,30.517578,78.125000,-2.491370,92,0.000000,0
100,0,1773659048968,0,0.001221,0.000000,0.000000,24.414062,87.890625,98.876953,92,0.000000,0
100,0,1773659048969,0,0.001221,0.000000,-0.000122,13.427734,100.097656,111.083984,92,0.000000,0
100,0,1773659048971,0,0.001221,0.000000,-0.000122,10.986328,104.980469,115.966797,92,0.000000,0
100,0,1773659049017,0,0.001343,-0.000122,-0.000244,35.400391,114.746094,-3.130529,92,0.000000,0
100,0,1773659049018,0,0.001343,-0.000122,-0.000244,67.138672,124.511719,123.291016,92,0.000000,0
100,0,1773659049019,0,0.001465,0.000000,-0.000244,85.449219,129.394531,123.291016,92,0.000000,0
100,0,1773659049066,0,0.001465,0.000000,-0.000488,111.083984,144.042969,-3.300971,92,0.000000,0
100,0,1773659049068,0,0.001709,0.000122,-0.000732,146.484375,152.587891,144.042969,92,0.000000,0
100,0,1773659049069,0,0.001831,0.000244,-0.000854,159.912109,153.808594,-3.599245,92,0.000000,0
100,0,1773659049115,0,0.001709,0.000244,-0.001099,172.119141,156.250000,-3.769688,92,0.000000,0
100,0,1773659049117,0,0.001587,0.000000,-0.000366,129.394531,126.953125,173.339844,92,0.000000,0
100,0,1773659049118,0,0.001831,-0.000488,-0.000244,133.056641,120.849609,156.250000,92,0.000000,0
100,0,1773659049212,0,0.001709,0.000000,-0.000610,118.408203,129.394531,120.849609,92,0.000000,0
100,0,1773659049214,0,0.000854,0.000244,-0.001099,96.435547,109.863281,70.800781,92,0.000000,0
100,0,1773659049261,0,0.000366,0.000366,-0.000488,120.849609,69.580078,35.400391,92,0.000000,0
100,0,1773659049264,0,0.000854,-0.001221,0.000000,102.539062,57.373047,-3.556635,92,0.000000,0
100,0,1773659049264,0,0.000000,0.000122,-0.000122,-1.220703,-133.056641,0.107875,92,0.000000,0
100,0,1773659049310,0,0.000122,0.000244,-0.000244,-35.400391,-177.001953,-85.449219,92,0.000000,0
100,0,1773659049313,0,0.000244,0.000244,-0.000122,-97.656250,-246.582031,1.109224,92,0.000000,0
100,0,1773659049314,0,0.000488,0.000122,-0.000122,-108.642578,-261.230469,1.386192,92,0.000000,0
100,0,1773659049358,0,0.000610,0.000122,0.000000,-111.083984,-291.748047,1.897519,92,0.000000,0
100,0,1773659049362,0,0.000732,0.000122,0.000000,-120.849609,-314.941406,-190.429688,92,0.000000,0
100,0,1773659049363,0,0.000854,0.000122,0.000000,-128.173828,-321.044922,2.536678,92,0.000000,0
100,0,1773659049407,0,0.001099,0.000000,0.000000,-126.953125,-311.279297,3.026700,92,0.000000,0
100,0,1773659049407,0,0.001221,0.000000,0.000000,-98.876953,-306.396484,3.410195,92,0.000000,0
100,0,1773659049408,0,0.001221,0.000000,-0.000122,-95.214844,-311.279297,3.516721,92,0.000000,0
100,0,1773659049456,0,0.001465,-0.000122,-0.000122,-81.787109,-314.941406,3.793690,92,0.000000,0
100,0,1773659049458,0,0.001709,0.000000,-0.000122,-62.255859,-319.824219,-281.982422,92,0.000000,0
100,0,1773659049459,0,0.001831,0.000000,-0.000122,-72.021484,-325.927734,-280.761719,92,0.000000,0
100,0,1773659049504,0,0.001831,-0.000244,0.000000,-76.904297,-310.058594,-277.099609,92,0.000000,0
100,0,1773659049506,0,0.001831,-0.000244,0.000244,-73.242188,-261.230469,-241.699219,92,0.000000,0
100,0,1773659049507,0,0.001831,-0.000244,0.000366,-93.994141,-218.505859,3.005394,92,0.000000,0
100,0,1773659049554,0,0.001831,-0.000610,0.000488,-169.677734,-144.042969,-167.236328,92,0.000000,0
100,0,1773659049557,0,0.001587,-0.001709,0.000488,-186.767578,-104.980469,0.810950,92,0.000000,0
100,0,1773659049558,0,0.001343,-0.001831,0.000610,-123.291016,-68.359375,0.150486,92,0.000000,0
100,0,1773659049602,0,0.001343,-0.001587,0.000854,-4.882812,-10.986328,-1.511327,92,0.000000,0
100,0,1773659049603,0,0.001465,-0.001343,0.000854,23.193359,54.931641,-2.597897,92,0.000000,0
100,0,1773659049605,0,0.001465,-0.001221,0.000732,26.855469,92.773438,125.732422,92,0.000000,0
100,0,1773659049652,0,0.001465,0.000244,-0.000977,50.048828,147.705078,-3.045308,92,0.000000,0
100,0,1773659049655,0,0.001831,0.001831,-0.000122,84.228516,120.849609,85.449219,92,0.000000,0
100,0,1773659049657,0,0.001831,0.000977,0.000610,-179.443359,147.705078,177.001953,92,0.000000,0
100,0,1773659049700,0,0.001831,-0.001831,0.000244,-98.876953,79.345703,-4.941479,92,0.000000,0
100,0,1773659049702,0,0.001099,0.000122,-0.000244,76.904297,103.759766,-4.643205,92,0.000000,0
100,0,1773659049703,0,0.000488,0.000854,-0.000732,-15.869141,84.228516,-4.685815,92,0.000000,0
100,0,1773659049748,0,0.000488,-0.000610,-0.000366,-252.685547,-26.855469,246.582031,92,0.000000,0
100,0,1773659049749,0,0.001099,-0.000854,-0.000366,26.855469,100.097656,-3.173139,92,0.000000,0
100,0,1773659049752,0,0.000732,-0.000122,-0.000366,76.904297,98.876953,-2.768339,92,0.000000,0
100,0,1773659049797,0,0.000977,-0.000244,-0.000122,62.255859,118.408203,-2.235707,92,0.000000,0
100,0,1773659049798,0,0.000977,0.000000,0.000000,103.759766,124.511719,-1.958738,92,0.000000,0
100,0,1773659049799,0,0.000732,0.000366,-0.000122,46.386719,101.318359,-2.022654,92,0.000000,0
100,0,1773659049895,0,0.000854,0.000122,-0.000122,-57.373047,41.503906,73.242188,92,0.000000,0
100,0,1773659049898,0,0.000977,0.000000,-0.000122,-54.931641,41.503906,65.917969,92,0.000000,0
100,0,1773659049898,0,0.000854,0.000000,-0.000122,-43.945312,42.724609,-2.065264,92,0.000000,0
100,0,1773659049993,0,0.000854,-0.000244,-0.000244,-8.544922,39.062500,-1.788296,92,0.000000,0
100,0,1773659049994,0,0.000977,0.000000,-0.000122,-24.414062,30.517578,-1.916127,92,0.000000,0
100,0,1773659049995,0,0.000977,-0.000122,-0.000244,-15.869141,34.179688,-1.873517,92,0.000000,0
100,0,1773659050041,0,0.000854,-0.000244,-0.000122,24.414062,41.503906,-1.703074,92,0.000000,0
100,0,1773659050042,0,0.000977,-0.000122,-0.000122,12.207031,46.386719,-1.894822,92,0.000000,0
100,0,1773659050044,0,0.000854,-0.000122,-0.000122,15.869141,46.386719,52.490234,92,0.000000,0
100,0,1773659050089,0,0.000977,-0.000122,-0.000122,21.972656,51.269531,-2.001348,92,0.000000,0
100,0,1773659050090,0,0.000977,-0.000122,-0.000122,29.296875,53.710938,-2.086570,92,0.000000,0
100,0,1773659050093,0,0.000977,0.000000,-0.000122,31.738281,58.593750,-2.150486,92,0.000000,0
100,0,1773659050138,0,0.001099,0.000000,-0.000122,34.179688,65.917969,-2.363539,92,0.000000,0
100,0,1773659050138,0,0.001221,0.000000,-0.000122,37.841797,76.904297,-2.555286,92,0.000000,0
100,0,1773659050142,0,0.001221,0.000000,0.000000,30.517578,83.007812,-2.661813,92,0.000000,0
100,0,1773659050187,0,0.001221,0.000000,-0.000122,24.414062,97.656250,-2.960087,92,0.000000,0
100,0,1773659050188,0,0.001221,-0.000122,-0.000244,24.414062,108.642578,123.291016,92,0.000000,0
100,0,1773659050188,0,0.001343,-0.000122,-0.000244,40.283203,112.304688,-3.237055,92,0.000000,0
100,0,1773659050235,0,0.001343,-0.000122,-0.000366,75.683594,125.732422,-3.386192,92,0.000000,0
100,0,1773659050236,0,0.001587,0.000000,-0.000366,114.746094,135.498047,-3.471413,92,0.000000,0
100,0,1773659050239,0,0.001587,0.000000,-0.000488,130.615234,145.263672,144.042969,92,0.000000,0
100,0,1773659050332,0,0.001831,0.000122,-0.000732,163.574219,153.808594,148.925781,92,0.000000,0
100,0,1773659050334,0,0.001831,0.000244,-0.001099,225.830078,173.339844,145.263672,92,0.000000,0
100,0,1773659050334,0,0.001587,0.000366,-0.001221,228.271484,158.691406,146.484375,92,0.000000,0
100,0,1773659050382,0,0.001709,-0.000122,-0.000244,172.119141,122.070312,153.808594,92,0.000000,0
100,0,1773659050382,0,0.001465,0.000122,-0.000488,169.677734,126.953125,-2.342233,92,0.000000,0
100,0,1773659050382,0,0.000732,-0.000244,0.000610,228.271484,80.566406,-0.808252,92,0.000000,0
100,0,1773659050430,0,0.000610,-0.000366,-0.000244,30.517578,3.662109,98.876953,92,0.000000,0
100,0,1773659050432,0,0.000000,0.001099,-0.000488,-52.490234,-37.841797,-0.850863,92,0.000000,0
100,0,1773659050433,0,0.000000,0.000854,-0.000366,-90.332031,-83.007812,-54.931641,92,0.000000,0
100,0,1773659050479,0,0.000000,0.000000,-0.000122,-109.863281,-159.912109,-68.359375,92,0.000000,0
100,0,1773659050480,0,0.000122,0.000000,-0.000244,-91.552734,-200.195312,0.683118,92,0.000000,0
100,0,1773659050482,0,0.000122,0.000122,-0.000244,-80.566406,-228.271484,-2.002697,92,0.000000,0
100,0,1773659050528,0,0.000366,0.000122,-0.000122,-76.904297,-252.685547,1.599245,92,0.000000,0
100,0,1773659050530,0,0.000610,0.000122,0.000000,-62.255859,-273.437500,-184.326172,92,0.000000,0
100,0,1773659050531,0,0.000732,0.000122,0.000000,-53.710938,-281.982422,-196.533203,92,0.000000,0
100,0,1773659050577,0,0.000854,0.000244,0.000000,-46.386719,-308.837891,-228.271484,92,0.000000,0
100,0,1773659050577,0,0.001099,0.000244,0.000000,-52.490234,-308.837891,3.346279,92,0.000000,0
100,0,1773659050582,0,0.001221,0.000122,0.000000,-47.607422,-302.734375,-260.009766,92,0.000000,0
100,0,1773659050626,0,0.001343,0.000122,0.000000,-46.386719,-303.955078,-275.878906,92,0.000000,0
100,0,1773659050627,0,0.001465,0.000000,-0.000122,-54.931641,-316.162109,-281.982422,92,0.000000,0
100,0,1773659050629,0,0.001587,0.000000,-0.000122,-54.931641,-318.603516,-285.644531,92,0.000000,0
100,0,1773659050675,0,0.001831,0.000000,-0.000244,-72.021484,-339.355469,3.921522,92,0.000000,0
100,0,1773659050677,0,0.001831,0.000000,0.000000,-124.511719,-338.134766,-273.437500,92,0.000000,0
100,0,1773659050678,0,0.001831,-0.000122,0.000122,-120.849609,-308.837891,3.708469,92,0.000000,0
100,0,1773659050723,0,0.001831,-0.000244,0.000488,-129.394531,-236.816406,3.410195,92,0.000000,0
100,0,1773659050726,0,0.001831,-0.000488,0.000366,-223.388672,-148.925781,2.217099,92,0.000000,0
100,0,1773659050728,0,0.001709,-0.001343,0.000244,-252.685547,-144.042969,1.854909,92,0.000000,0
100,0,1773659050772,0,0.001221,-0.001831,0.000854,-93.994141,-79.345703,0.001349,92,0.000000,0
100,0,1773659050774,0,0.001343,-0.001587,0.001099,46.386719,3.662109,29.296875,92,0.000000,0
100,0,1773659050775,0,0.001343,-0.001221,0.000977,36.621094,45.166016,76.904297,92,0.000000,0
100,0,1773659050822,0,0.001709,-0.000732,0.000244,17.089844,114.746094,134.277344,92,0.000000,0
100,0,1773659050822,0,0.000732,0.001099,-0.001831,87.890625,115.966797,-2.448760,92,0.000000,0
100,0,1773659050824,0,0.000610,0.001831,-0.000732,103.759766,34.179688,-2.001348,92,0.000000,0
100,0,1773659050870,0,0.001831,0.000122,0.000488,-201.416016,133.056641,-3.769688,92,0.000000,0
100,0,1773659050872,0,0.001831,-0.000854,0.000244,70.800781,91.552734,-4.238404,92,0.000000,0
100,0,1773659050874,0,0.001465,0.000000,0.000000,98.876953,97.656250,-4.153183,92,0.000000,0
100,0,1773659050919,0,0.000610,0.000000,-0.000488,-159.912109,25.634766,-5.154531,92,0.000000,0
100,0,1773659050922,0,0.000977,-0.000366,0.000000,-196.533203,15.869141,196.533203,92,0.000000,0
100,0,1773659050923,0,0.000977,-0.000732,-0.000244,-96.435547,59.814453,-3.748382,92,0.000000,0
100,0,1773659051015,0,0.000854,-0.000366,-0.000244,64.697266,111.083984,97.656250,92,0.000000,0
100,0,1773659051020,0,0.000732,0.000000,-0.000244,70.800781,95.214844,59.814453,92,0.000000,0
100,0,1773659051064,0,0.000854,0.000122,-0.000122,46.386719,74.462891,-1.894822,92,0.000000,0
100,0,1773659051067,0,0.000977,0.000000,0.000000,42.724609,65.917969,39.062500,92,0.000000,0
100,0,1773659051068,0,0.000854,-0.000122,-0.000366,31.738281,46.386719,30.517578,92,0.000000,0
100,0,1773659051113,0,0.000854,0.000000,-0.000244,58.593750,52.490234,24.414062,92,0.000000,0
100,0,1773659051114,0,0.000854,0.000122,-0.000122,-1.220703,41.503906,-1.745685,92,0.000000,0
100,0,1773659051115,0,0.000854,0.000000,-0.000122,-19.531250,40.283203,-1.852211,92,0.000000,0
100,0,1773659051162,0,0.000854,0.000000,-0.000122,-12.207031,43.945312,-1.852211,92,0.000000,0
100,0,1773659051163,0,0.000977,0.000000,-0.000122,9.765625,56.152344,-1.766990,92,0.000000,0
100,0,1773659051164,0,0.000854,0.000000,-0.000122,17.089844,56.152344,-1.766990,92,0.000000,0
100,0,1773659051212,0,0.000977,0.000000,-0.000122,12.207031,61.035156,-1.852211,92,0.000000,0
100,0,1773659051213,0,0.000977,0.000000,-0.000122,4.882812,65.917969,-1.852211,92,0.000000,0
100,0,1773659051214,0,0.000977,0.000000,-0.000122,6.103516,65.917969,-1.830906,92,0.000000,0
100,0,1773659051260,0,0.000977,-0.000122,-0.000122,18.310547,67.138672,-1.788296,92,0.000000,0
100,0,1773659051264,0,0.000977,0.000000,-0.000122,12.207031,64.697266,50.048828,92,0.000000,0
100,0,1773659051264,0,0.000977,0.000000,0.000000,3.662109,65.917969,-1.916127,92,0.000000,0
100,0,1773659051309,0,0.000977,0.000000,0.000000,-4.882812,67.138672,-2.001348,92,0.000000,0
100,0,1773659051312,0,0.001099,0.000000,0.000000,-13.427734,70.800781,61.035156,92,0.000000,0
100,0,1773659051313,0,0.001099,0.000000,-0.000122,-13.427734,72.021484,-2.107875,92,0.000000,0
100,0,1773659051357,0,0.000977,0.000000,0.000000,-2.441406,80.566406,-2.235707,92,0.000000,0
100,0,1773659051358,0,0.001099,0.000000,0.000000,-9.765625,87.890625,80.566406,92,0.000000,0
100,0,1773659051359,0,0.001099,0.000000,0.000000,-19.531250,92.773438,-2.555286,92,0.000000,0
100,0,1773659051406,0,0.001221,-0.000122,-0.000122,-8.544922,102.539062,-2.768339,92,0.000000,0
100,0,1773659051407,0,0.001343,-0.000122,-0.000244,19.531250,112.304688,109.863281,92,0.000000,0
100,0,1773659051409,0,0.001343,-0.000122,-0.000122,32.958984,118.408203,112.304688,92,0.000000,0
100,0,1773659051455,0,0.001465,0.000000,-0.000122,64.697266,131.835938,115.966797,92,0.000000,0
100,0,1773659051457,0,0.001587,0.000122,-0.000122,89.111328,145.263672,118.408203,92,0.000000,0
100,0,1773659051460,0,0.001709,0.000122,-0.000244,126.953125,155.029297,-3.045308,92,0.000000,0
100,0,1773659051553,0,0.001709,0.000366,-0.000732,168.457031,167.236328,-3.002697,92,0.000000,0
100,0,1773659051556,0,0.001587,0.000488,-0.001099,126.953125,164.794922,-3.343582,92,0.000000,0
100,0,1773659051558,0,0.001587,0.000244,-0.000977,86.669922,157.470703,-3.535329,92,0.000000,0
100,0,1773659051601,0,0.001709,-0.000366,-0.000122,84.228516,126.953125,-3.300971,92,0.000000,0
100,0,1773659051605,0,0.000488,-0.000488,0.000366,115.966797,80.566406,-0.552589,92,0.000000,0
100,0,1773659051607,0,0.000488,-0.001221,0.000000,9.765625,54.931641,-2.129180,92,0.000000,0
100,0,1773659051651,0,0.000244,0.000000,-0.000488,34.179688,23.193359,-0.467368,92,0.000000,0
100,0,1773659051652,0,0.000000,0.000732,-0.000244,12.207031,10.986328,0.981392,92,0.000000,0
100,0,1773659051653,0,0.000000,0.000732,-0.000244,-40.283203,-6.103516,1.279666,92,0.000000,0
100,0,1773659051698,0,0.000000,0.000122,-0.000244,-112.304688,-79.345703,-142.822266,92,0.000000,0
100,0,1773659051700,0,0.000122,0.000000,-0.000244,-155.029297,-104.980469,1.727077,92,0.000000,0
100,0,1773659051702,0,0.000122,0.000000,-0.000366,-166.015625,-123.291016,-169.677734,92,0.000000,0
100,0,1773659051748,0,0.000244,0.000000,-0.000366,-175.781250,-158.691406,2.366236,92,0.000000,0
100,0,1773659051748,0,0.000488,-0.000122,-0.000366,-190.429688,-197.753906,2.771036,92,0.000000,0
100,0,1773659051748,0,0.000610,-0.000122,-0.000488,-196.533203,-213.623047,2.941478,92,0.000000,0
100,0,1773659051796,0,0.000854,-0.000244,-0.000488,-206.298828,-242.919922,-231.933594,92,0.000000,0
100,0,1773659051797,0,0.001099,-0.000244,-0.000488,-213.623047,-247.802734,-236.816406,92,0.000000,0
100,0,1773659051799,0,0.001221,-0.000366,-0.000488,-213.623047,-247.802734,3.175837,92,0.000000,0
100,0,1773659051844,0,0.001343,-0.000366,-0.000488,-211.181641,-253.906250,-242.919922,92,0.000000,0
100,0,1773659051847,0,0.001465,-0.000366,-0.000610,-217.285156,-269.775391,3.324974,92,0.000000,0
100,0,1773659051848,0,0.001465,-0.000488,-0.000610,-213.623047,-278.320312,3.367584,92,0.000000,0
100,0,1773659051893,0,0.001709,-0.000488,-0.000732,-192.871094,-295.410156,3.346279,92,0.000000,0
100,0,1773659051897,0,0.001831,-0.000732,-0.000732,-181.884766,-303.955078,-239.257812,92,0.000000,0
100,0,1773659051898,0,0.001831,-0.000732,-0.000610,-163.574219,-301.513672,-233.154297,92,0.000000,0
100,0,1773659051943,0,0.001831,-0.000610,-0.000488,-123.291016,-294.189453,2.557983,92,0.000000,0
100,0,1773659051947,0,0.001831,-0.000244,0.000488,-35.400391,-201.416016,2.408846,92,0.000000,0
100,0,1773659051948,0,0.001831,0.000000,0.000366,-64.697266,-155.029297,2.153183,92,0.000000,0
100,0,1773659051992,0,0.001465,-0.001343,0.000000,-203.857422,-167.236328,1.173139,92,0.000000,0
100,0,1773659051992,0,0.001221,-0.001831,0.000732,-31.738281,-103.759766,-0.233010,92,0.000000,0
100,0,1773659051997,0,0.001343,-0.001221,0.000977,8.544922,-72.021484,-1.276969,92,0.000000,0
100,0,1773659052040,0,0.001465,-0.001099,0.000977,-2.441406,-10.986328,-2.683118,92,0.000000,0
100,0,1773659052042,0,0.001465,-0.000977,0.000854,18.310547,72.021484,141.601562,92,0.000000,0
100,0,1773659052044,0,0.001709,-0.000244,0.000244,46.386719,78.125000,-3.258361,92,0.000000,0
100,0,1773659052088,0,0.000977,0.001709,-0.001221,-21.972656,117.187500,-2.555286,92,0.000000,0
100,0,1773659052089,0,0.001709,0.001831,0.000122,-104.980469,97.656250,-3.492719,92,0.000000,0
100,0,1773659052093,0,0.001709,0.000122,0.000854,-270.996094,54.931641,-4.323625,92,0.000000,0
100,0,1773659052137,0,0.001709,-0.001221,0.000000,-68.359375,47.607422,207.519531,92,0.000000,0
100,0,1773659052138,0,0.001099,0.000244,-0.000488,-85.449219,31.738281,233.154297,92,0.000000,0
100,0,1773659052140,0,0.000854,0.000000,-0.000610,-224.609375,-7.324219,-5.623248,92,0.000000,0
100,0,1773659052186,0,0.000977,-0.000977,-0.000244,-152.587891,43.945312,197.753906,92,0.000000,0
100,0,1773659052187,0,0.000732,-0.000122,-0.000244,122.070312,129.394531,-2.533981,92,0.000000,0
100,0,1773659052188,0,0.000732,0.000000,0.000000,106.201172,118.408203,-2.193096,92,0.000000,0
100,0,1773659052235,0,0.000977,0.000366,0.000000,43.945312,86.669922,65.917969,92,0.000000,0
100,0,1773659052237,0,0.000977,0.000122,0.000000,-1.220703,57.373047,-2.129180,92,0.000000,0
100,0,1773659052239,0,0.000977,0.000244,0.000000,-4.882812,54.931641,-2.235707,92,0.000000,0
100,0,1773659052283,0,0.000854,0.000122,-0.000122,-76.904297,21.972656,80.566406,92,0.000000,0
100,0,1773659052285,0,0.000977,-0.000244,-0.000244,-28.076172,40.283203,63.476562,92,0.000000,0
100,0,1773659052287,0,0.000977,-0.000244,-0.000244,15.869141,53.710938,-1.852211,92,0.000000,0
100,0,1773659052333,0,0.000854,-0.000122,-0.000122,62.255859,59.814453,30.517578,92,0.000000,0
100,0,1773659052337,0,0.000854,0.000244,-0.000122,18.310547,58.593750,-1.724380,92,0.000000,0
100,0,1773659052339,0,0.000854,0.000244,0.000000,-14.648438,43.945312,-1.809601,92,0.000000,0
100,0,1773659052380,0,0.000977,0.000000,0.000000,-23.193359,42.724609,-1.745685,92,0.000000,0
100,0,1773659052383,0,0.000977,0.000000,-0.000122,1.220703,52.490234,-1.575243,92,0.000000,0
100,0,1773659052430,0,0.000854,0.000000,-0.000122,4.882812,50.048828,-1.532632,92,0.000000,0
100,0,1773659052430,0,0.000854,0.000000,0.000000,2.441406,45.166016,29.296875,92,0.000000,0
100,0,1773659052432,0,0.000854,0.000000,0.000000,-6.103516,45.166016,30.517578,92,0.000000,0
100,0,1773659052479,0,0.000977,0.000000,0.000000,-1.220703,45.166016,-1.553937,92,0.000000,0
100,0,1773659052480,0,0.000977,0.000000,0.000000,2.441406,50.048828,32.958984,92,0.000000,0
100,0,1773659052482,0,0.000977,0.000000,0.000000,0.000000,51.269531,-1.617853,92,0.000000,0
100,0,1773659052527,0,0.000977,0.000000,0.000000,-6.103516,57.373047,-1.724380,92,0.000000,0
100,0,1773659052624,0,0.000977,0.000000,0.000000,-4.882812,62.255859,45.166016,92,0.000000,0
100,0,1773659052625,0,0.000977,0.000000,0.000000,-7.324219,64.697266,-1.809601,92,0.000000,0
100,0,1773659052626,0,0.001099,0.000000,0.000000,-10.986328,70.800781,-1.916127,92,0.000000,0
100,0,1773659052672,0,0.001221,0.000000,-0.000122,-12.207031,79.345703,-2.086570,92,0.000000,0
100,0,1773659052723,0,0.001099,0.000000,0.000000,-10.986328,86.669922,75.683594,92,0.000000,0
100,0,1773659052726,0,0.001343,0.000000,-0.000244,36.621094,136.718750,109.863281,92,0.000000,0
100,0,1773659052728,0,0.001587,0.000122,-0.000244,75.683594,163.574219,113.525391,92,0.000000,0
100,0,1773659052819,0,0.001709,0.000488,-0.000854,135.498047,185.546875,109.863281,92,0.000000,0
100,0,1773659052822,0,0.001587,-0.000488,-0.000122,15.869141,117.187500,-3.237055,92,0.000000,0
100,0,1773659052868,0,0.001709,-0.000610,-0.000244,29.296875,133.056641,-2.896171,92,0.000000,0
100,0,1773659052870,0,0.001343,0.000000,-0.000488,20.751953,142.822266,-1.980043,92,0.000000,0
100,0,1773659052871,0,0.000122,0.000122,-0.000488,9.765625,40.283203,-0.169094,92,0.000000,0
100,0,1773659052917,0,0.000000,0.000610,-0.000366,-45.166016,23.193359,1.279666,92,0.000000,0
100,0,1773659052918,0,0.000000,0.000122,-0.000244,-140.380859,-56.152344,-150.146484,92,0.000000,0
100,0,1773659052919,0,0.000122,0.000000,-0.000244,-163.574219,-74.462891,1.748382,92,0.000000,0
100,0,1773659052966,0,0.000122,0.000000,-0.000488,-197.753906,-118.408203,2.131877,92,0.000000,0
100,0,1773659052967,0,0.000244,-0.000122,-0.000488,-238.037109,-155.029297,2.472762,92,0.000000,0
100,0,1773659052969,0,0.000366,-0.000122,-0.000488,-224.609375,-172.119141,2.643204,92,0.000000,0
100,0,1773659053014,0,0.000610,-0.000244,-0.000488,-228.271484,-206.298828,-231.933594,92,0.000000,0
100,0,1773659053063,0,0.000854,-0.000366,-0.000488,-222.167969,-223.388672,3.261058,92,0.000000,0
100,0,1773659053064,0,0.000977,-0.000366,-0.000488,-216.064453,-227.050781,3.367584,92,0.000000,0
100,0,1773659053067,0,0.001221,-0.000366,-0.000610,-217.285156,-230.712891,3.452806,92,0.000000,0
100,0,1773659053112,0,0.001343,-0.000488,-0.000610,-223.388672,-240.478516,-256.347656,92,0.000000,0
100,0,1773659053114,0,0.001465,-0.000488,-0.000610,-222.167969,-257.568359,-257.568359,92,0.000000,0
100,0,1773659053115,0,0.001709,-0.000732,-0.000854,-207.519531,-290.527344,-249.023438,92,0.000000,0
100,0,1773659053161,0,0.001831,-0.000854,-0.000732,-186.767578,-299.072266,3.111921,92,0.000000,0
100,0,1773659053162,0,0.001831,-0.000732,-0.000366,-139.160156,-285.644531,-191.650391,92,0.000000,0
100,0,1773659053164,0,0.001831,-0.000732,0.000122,-106.201172,-266.113281,-198.974609,92,0.000000,0
100,0,1773659053209,0,0.001831,0.000122,0.000122,-118.408203,-161.132812,-159.912109,92,0.000000,0
100,0,1773659053210,0,0.001587,-0.001587,0.000122,-257.568359,-151.367188,-87.890625,92,0.000000,0
100,0,1773659053213,0,0.001343,-0.001831,0.000366,-183.105469,-120.849609,-48.828125,92,0.000000,0
100,0,1773659053259,0,0.001221,-0.001343,0.000732,-108.642578,-91.552734,-1.660464,92,0.000000,0
100,0,1773659053265,0,0.001343,-0.001221,0.000732,-72.021484,-47.607422,-2.512676,92,0.000000,0
100,0,1773659053265,0,0.001465,-0.001099,0.000732,-43.945312,1.220703,-2.874866,92,0.000000,0
100,0,1773659053308,0,0.001587,-0.000732,0.000366,-10.986328,59.814453,-3.364887,92,0.000000,0
100,0,1773659053309,0,0.001587,0.000000,0.000000,-30.517578,117.187500,-3.471413,92,0.000000,0
100,0,1773659053310,0,0.001099,0.001709,-0.000732,-3.662109,103.759766,-2.661813,92,0.000000,0
100,0,1773659053356,0,0.001831,0.001465,0.000854,-157.470703,98.876953,-4.408846,92,0.000000,0
100,0,1773659053356,0,0.001709,-0.001221,0.000122,-120.849609,45.166016,236.816406,92,0.000000,0
100,0,1773659053358,0,0.001465,-0.000244,0.000000,-4.882812,57.373047,196.533203,92,0.000000,0
100,0,1773659053405,0,0.000366,0.000000,-0.000610,-236.816406,0.000000,-5.261058,92,0.000000,0
100,0,1773659053407,0,0.000977,-0.000732,-0.000244,-236.816406,-8.544922,218.505859,92,0.000000,0
100,0,1773659053408,0,0.001221,-0.001221,-0.000122,-83.007812,54.931641,163.574219,92,0.000000,0
100,0,1773659053455,0,0.000977,-0.000122,0.000000,103.759766,125.732422,-2.427454,92,0.000000,0
100,0,1773659053462,0,0.000732,0.000366,-0.000122,64.697266,76.904297,-2.257012,92,0.000000,0
100,0,1773659053463,0,0.000854,0.000488,-0.000122,21.972656,57.373047,-2.278317,92,0.000000,0
100,0,1773659053502,0,0.000977,0.000000,0.000122,-18.310547,45.166016,62.255859,92,0.000000,0
100,0,1773659053502,0,0.000854,0.000366,-0.000122,-57.373047,24.414062,-2.193096,92,0.000000,0
100,0,1773659053502,0,0.000854,0.000000,-0.000122,-61.035156,10.986328,-2.171791,92,0.000000,0
100,0,1773659053599,0,0.000977,-0.000366,-0.000122,35.400391,50.048828,35.400391,92,0.000000,0
100,0,1773659053600,0,0.000854,0.000122,-0.000122,41.503906,52.490234,-1.532632,92,0.000000,0
100,0,1773659053601,0,0.000854,0.000122,-0.000122,19.531250,42.724609,-1.575243,92,0.000000,0
100,0,1773659053648,0,0.000977,0.000000,0.000000,-17.089844,32.958984,-1.639159,92,0.000000,0
100,0,1773659053649,0,0.000977,0.000000,0.000000,-6.103516,35.400391,-1.447411,92,0.000000,0
100,0,1773659053650,0,0.000977,0.000000,0.000000,-2.441406,34.179688,-1.447411,92,0.000000,0
100,0,1773659053697,0,0.000977,0.000000,0.000000,-1.220703,35.400391,-1.447411,92,0.000000,0
100,0,1773659053698,0,0.000977,0.000000,0.000000,2.441406,37.841797,24.414062,92,0.000000,0
100,0,1773659053699,0,0.000977,0.000000,0.000000,3.662109,40.283203,-1.426106,92,0.000000,0
100,0,1773659053747,0,0.000977,0.000000,0.000000,7.324219,40.283203,25.634766,92,0.000000,0
100,0,1773659053748,0,0.000977,0.000000,0.000000,12.207031,45.166016,25.634766,92,0.000000,0
100,0,1773659053749,0,0.000977,0.000000,0.000000,9.765625,46.386719,-1.490022,92,0.000000,0
100,0,1773659053795,0,0.000977,0.000000,0.000000,6.103516,53.710938,-1.596548,92,0.000000,0
100,0,1773659053798,0,0.000977,0.000000,0.000000,-2.441406,59.814453,42.724609,92,0.000000,0
100,0,1773659053798,0,0.001099,0.000000,0.000000,-9.765625,65.917969,-1.830906,92,0.000000,0
100,0,1773659053843,0,0.001099,0.000000,0.000000,-17.089844,79.345703,-2.022654,92,0.000000,0
100,0,1773659053847,0,0.001099,0.000000,0.000000,-21.972656,93.994141,-2.278317,92,0.000000,0
100,0,1773659053848,0,0.001099,0.000000,0.000000,-19.531250,96.435547,-2.427454,92,0.000000,0
100,0,1773659053893,0,0.001221,0.000122,0.000000,-41.503906,114.746094,-2.640507,92,0.000000,0
100,0,1773659053897,0,0.001221,0.000000,-0.000122,-39.062500,118.408203,103.759766,92,0.000000,0
100,0,1773659053898,0,0.001343,-0.000122,-0.000122,-26.855469,124.511719,104.980469,92,0.000000,0
100,0,1773659053942,0,0.001465,0.000000,-0.000244,9.765625,141.601562,107.421875,92,0.000000,0
100,0,1773659053945,0,0.001587,0.000122,-0.000366,31.738281,157.470703,-3.002697,92,0.000000,0
100,0,1773659053947,0,0.001709,0.000122,-0.000366,51.269531,162.353516,-3.045308,92,0.000000,0
100,0,1773659053990,0,0.001831,0.000366,-0.000732,81.787109,184.326172,114.746094,92,0.000000,0
100,0,1773659053992,0,0.001465,0.000366,-0.000977,68.359375,184.326172,-3.151834,92,0.000000,0
100,0,1773659053993,0,0.001343,0.000122,-0.000854,36.621094,167.236328,-3.279666,92,0.000000,0
100,0,1773659054038,0,0.001709,-0.000610,-0.000122,39.062500,126.953125,130.615234,92,0.000000,0
100,0,1773659054040,0,0.001343,-0.000122,-0.000488,48.828125,130.615234,95.214844,92,0.000000,0
100,0,1773659054042,0,0.001221,0.000000,-0.000488,30.517578,123.291016,-2.150486,92,0.000000,0
100,0,1773659054087,0,0.000488,0.000366,-0.000732,6.103516,115.966797,-15.869141,92,0.000000,0
100,0,1773659054088,0,0.000732,-0.000854,0.000244,-13.427734,93.994141,-2.171791,92,0.000000,0
100,0,1773659054092,0,0.000854,-0.000488,0.000244,-39.062500,72.021484,30.517578,92,0.000000,0
100,0,1773659054136,0,0.000122,0.000244,-0.000488,-28.076172,51.269531,-0.339536,92,0.000000,0
100,0,1773659054138,0,0.000122,0.000610,-0.000366,-106.201172,19.531250,0.555286,92,0.000000,0
100,0,1773659054139,0,0.000122,0.000366,-0.000366,-157.470703,3.662109,0.853560,92,0.000000,0
100,0,1773659054185,0,0.000122,0.000000,-0.000244,-175.781250,-47.607422,1.343582,92,0.000000,0
100,0,1773659054186,0,0.000122,0.000000,-0.000488,-207.519531,-89.111328,1.854909,92,0.000000,0
100,0,1773659054188,0,0.000244,0.000000,-0.000488,-219.726562,-111.083984,2.089267,92,0.000000,0
100,0,1773659054233,0,0.000366,-0.000122,-0.000488,-238.037109,-146.484375,-202.636719,92,0.000000,0
100,0,1773659054236,0,0.000610,-0.000244,-0.000488,-234.375000,-172.119141,-219.726562,92,0.000000,0
100,0,1773659054237,0,0.000732,-0.000366,-0.000488,-227.050781,-185.546875,-227.050781,92,0.000000,0
100,0,1773659054284,0,0.000977,-0.000366,-0.000488,-216.064453,-198.974609,-241.699219,92,0.000000,0
100,0,1773659054287,0,0.001099,-0.000366,-0.000610,-216.064453,-206.298828,3.303668,92,0.000000,0
100,0,1773659054288,0,0.001099,-0.000488,-0.000610,-219.726562,-211.181641,3.303668,92,0.000000,0
100,0,1773659054332,0,0.001221,-0.000488,-0.000610,-220.947266,-228.271484,-245.361328,92,0.000000,0
100,0,1773659054333,0,0.001343,-0.000488,-0.000732,-216.064453,-251.464844,3.324974,92,0.000000,0
100,0,1773659054335,0,0.001465,-0.000610,-0.000732,-212.402344,-262.451172,3.324974,92,0.000000,0
100,0,1773659054380,0,0.001587,-0.000610,-0.000854,-212.402344,-290.527344,3.218447,92,0.000000,0
100,0,1773659054381,0,0.001831,-0.000732,-0.000732,-211.181641,-303.955078,-225.830078,92,0.000000,0
100,0,1773659054382,0,0.001831,-0.000854,-0.000610,-196.533203,-301.513672,-216.064453,92,0.000000,0
100,0,1773659054429,0,0.001831,-0.001099,-0.000122,-106.201172,-273.437500,2.792341,92,0.000000,0
100,0,1773659054429,0,0.001831,-0.000244,0.000122,-52.490234,-190.429688,-195.312500,92,0.000000,0
100,0,1773659054430,0,0.001831,-0.000366,0.000122,-96.435547,-185.546875,-177.001953,92,0.000000,0
100,0,1773659054477,0,0.001709,-0.001099,0.000122,-150.146484,-137.939453,-119.628906,92,0.000000,0
100,0,1773659054478,0,0.001343,-0.001587,0.000366,-136.718750,-117.187500,-48.828125,92,0.000000,0
100,0,1773659054480,0,0.001221,-0.001587,0.000610,-114.746094,-106.201172,-6.103516,92,0.000000,0
100,0,1773659054525,0,0.001465,-0.001343,0.000854,-19.531250,-45.166016,62.255859,92,0.000000,0
100,0,1773659054533,0,0.001465,-0.001099,0.000732,15.869141,39.062500,109.863281,92,0.000000,0
100,0,1773659054534,0,0.001343,-0.000854,0.000488,26.855469,65.917969,130.615234,92,0.000000,0
100,0,1773659054622,0,0.001587,0.000610,0.000244,36.621094,134.277344,-3.002697,92,0.000000,0
100,0,1773659054625,0,0.001221,0.001831,-0.000488,30.517578,106.201172,-2.427454,92,0.000000,0
100,0,1773659054627,0,0.001465,0.001465,0.000244,-180.664062,58.593750,168.457031,92,0.000000,0
100,0,1773659054672,0,0.001831,-0.001343,0.000000,-186.767578,39.062500,-4.643205,92,0.000000,0
100,0,1773659054674,0,0.000854,0.000366,-0.000488,-120.849609,23.193359,217.285156,92,0.000000,0
100,0,1773659054722,0,0.001099,-0.000977,-0.000122,1.220703,79.345703,129.394531,92,0.000000,0
100,0,1773659054722,0,0.000854,0.000000,0.000000,85.449219,90.332031,72.021484,92,0.000000,0
100,0,1773659054724,0,0.000854,0.000366,0.000000,51.269531,72.021484,67.138672,92,0.000000,0
100,0,1773659054770,0,0.000732,0.000366,0.000000,-51.269531,19.531250,80.566406,92,0.000000,0
100,0,1773659054772,0,0.000977,0.000000,-0.000122,-59.814453,13.427734,76.904297,92,0.000000,0
100,0,1773659054773,0,0.000977,-0.000122,-0.000244,-32.958984,19.531250,67.138672,92,0.000000,0
100,0,1773659054819,0,0.000854,-0.000244,-0.000244,37.841797,37.841797,-1.703074,92,0.000000,0
100,0,1773659054822,0,0.000854,0.000000,-0.000244,61.035156,43.945312,-1.511327,92,0.000000,0
100,0,1773659054823,0,0.000854,0.000000,-0.000122,50.048828,37.841797,-1.575243,92,0.000000,0
100,0,1773659054867,0,0.000977,0.000244,0.000000,6.103516,30.517578,47.607422,92,0.000000,0
100,0,1773659054868,0,0.000977,0.000000,-0.000122,-19.531250,23.193359,46.386719,92,0.000000,0
100,0,1773659054869,0,0.000977,-0.000122,-0.000122,-1.220703,30.517578,-1.724380,92,0.000000,0
100,0,1773659054917,0,0.000854,0.000000,-0.000122,26.855469,39.062500,-1.617853,92,0.000000,0
100,0,1773659054918,0,0.000977,0.000000,0.000000,17.089844,36.621094,-1.639159,92,0.000000,0
100,0,1773659054919,0,0.000977,0.000000,0.000000,20.751953,50.048828,-1.575243,92,0.000000,0
100,0,1773659054965,0,0.000854,0.000000,-0.000122,9.765625,52.490234,-1.617853,92,0.000000,0
100,0,1773659054965,0,0.000854,0.000000,-0.000122,1.220703,42.724609,-1.703074,92,0.000000,0
100,0,1773659054967,0,0.000854,-0.000122,-0.000122,1.220703,45.166016,-1.745685,92,0.000000,0
100,0,1773659055013,0,0.000977,-0.000122,-0.000122,15.869141,47.607422,-1.745685,92,0.000000,0
100,0,1773659055013,0,0.000977,0.000000,0.000000,14.648438,48.828125,-1.809601,92,0.000000,0
100,0,1773659055018,0,0.000977,0.000000,0.000000,15.869141,51.269531,48.828125,92,0.000000,0
100,0,1773659055063,0,0.000977,0.000000,0.000000,13.427734,51.269531,-2.001348,92,0.000000,0
100,0,1773659055064,0,0.001099,0.000000,-0.000122,9.765625,65.917969,-2.171791,92,0.000000,0
100,0,1773659055065,0,0.001099,0.000000,-0.000122,8.544922,68.359375,-2.257012,92,0.000000,0
100,0,1773659055160,0,0.001099,0.000000,0.000000,8.544922,79.345703,85.449219,92,0.000000,0
100,0,1773659055163,0,0.001221,0.000122,0.000000,-14.648438,93.994141,-2.747034,92,0.000000,0
100,0,1773659055163,0,0.001099,0.000000,0.000000,-19.531250,93.994141,-2.874866,92,0.000000,0
100,0,1773659055208,0,0.001221,-0.000122,-0.000122,-12.207031,107.421875,115.966797,92,0.000000,0
100,0,1773659055257,0,0.001343,-0.000122,-0.000122,34.179688,118.408203,-3.045308,92,0.000000,0
100,0,1773659055259,0,0.001465,0.000000,-0.000366,75.683594,140.380859,-3.130529,92,0.000000,0
100,0,1773659055261,0,0.001709,0.000366,-0.000854,124.511719,153.808594,126.953125,92,0.000000,0
100,0,1773659055306,0,0.001343,-0.000122,-0.000366,65.917969,115.966797,156.250000,92,0.000000,0
100,0,1773659055307,0,0.001465,0.000122,-0.000488,80.566406,136.718750,87.890625,92,0.000000,0
100,0,1773659055309,0,0.001221,0.000122,-0.000610,62.255859,145.263672,-2.107875,92,0.000000,0
100,0,1773659055403,0,0.000244,0.000366,-0.000488,51.269531,81.787109,2.441406,92,0.000000,0
100,0,1773659055405,0,0.000854,-0.001099,0.000366,120.849609,74.462891,-2.129180,92,0.000000,0
100,0,1773659055407,0,0.000854,-0.000854,0.000000,56.152344,41.503906,80.566406,92,0.000000,0
100,0,1773659055453,0,0.000122,0.000366,-0.000610,104.980469,-3.662109,-0.914779,92,0.000000,0
100,0,1773659055456,0,0.000122,0.000122,-0.000244,-89.111328,-158.691406,-122.070312,92,0.000000,0
100,0,1773659055458,0,0.000122,0.000122,-0.000244,-103.759766,-183.105469,1.428803,92,0.000000,0
100,0,1773659055501,0,0.000366,0.000122,-0.000244,-133.056641,-228.271484,-167.236328,92,0.000000,0
100,0,1773659055503,0,0.000610,0.000000,-0.000244,-147.705078,-252.685547,-190.429688,92,0.000000,0
100,0,1773659055504,0,0.000732,0.000000,-0.000244,-148.925781,-270.996094,2.494067,92,0.000000,0
100,0,1773659055550,0,0.000977,0.000000,-0.000122,-148.925781,-288.085938,-217.285156,92,0.000000,0
100,0,1773659055552,0,0.001221,-0.000122,-0.000122,-141.601562,-280.761719,-240.478516,92,0.000000,0
100,0,1773659055553,0,0.001221,-0.000244,-0.000122,-122.070312,-273.437500,-247.802734,92,0.000000,0
100,0,1773659055599,0,0.001221,-0.000122,-0.000244,-102.539062,-270.996094,-253.906250,92,0.000000,0
100,0,1773659055602,0,0.001465,-0.000244,-0.000244,-86.669922,-289.306641,-252.685547,92,0.000000,0
100,0,1773659055603,0,0.001587,-0.000366,-0.000244,-73.242188,-297.851562,-251.464844,92,0.000000,0
100,0,1773659055648,0,0.001709,-0.000244,-0.000244,-75.683594,-312.500000,-238.037109,92,0.000000,0
100,0,1773659055649,0,0.001831,-0.000488,0.000000,-104.980469,-316.162109,-214.843750,92,0.000000,0
100,0,1773659055650,0,0.001831,-0.000732,0.000000,-90.332031,-299.072266,-211.181641,92,0.000000,0
100,0,1773659055697,0,0.001831,-0.000366,0.000366,-34.179688,-241.699219,2.494067,92,0.000000,0
100,0,1773659055699,0,0.001831,-0.000366,0.000488,-89.111328,-142.822266,-162.353516,92,0.000000,0
100,0,1773659055700,0,0.001831,-0.000610,0.000488,-131.835938,-122.070312,-133.056641,92,0.000000,0
100,0,1773659055745,0,0.001343,-0.001465,0.000610,-187.988281,-100.097656,-65.917969,92,0.000000,0
100,0,1773659055748,0,0.001221,-0.001587,0.000854,-98.876953,-47.607422,-1.362190,92,0.000000,0
100,0,1773659055749,0,0.001343,-0.001343,0.000854,-72.021484,-23.193359,-2.065264,92,0.000000,0
100,0,1773659055793,0,0.001587,-0.000732,0.001099,-52.490234,48.828125,-3.002697,92,0.000000,0
100,0,1773659055796,0,0.001587,-0.000732,0.000244,-92.773438,83.007812,136.718750,92,0.000000,0
100,0,1773659055798,0,0.001221,0.001099,-0.001343,73.242188,90.332031,-1.980043,92,0.000000,0
100,0,1773659055842,0,0.001831,0.000854,0.000854,-134.277344,128.173828,-4.089267,92,0.000000,0
100,0,1773659055844,0,0.001709,-0.001709,0.000000,-91.552734,51.269531,-4.515373,92,0.000000,0
100,0,1773659055847,0,0.001831,-0.000488,0.000000,109.863281,79.345703,-4.430151,92,0.000000,0
100,0,1773659055891,0,0.000366,0.000732,-0.000610,-112.304688,43.945312,-4.685815,91,0.000000,0
100,0,1773659055894,0,0.000977,-0.000610,-0.000122,-209.960938,2.441406,-4.451457,91,0.000000,0
100,0,1773659055897,0,0.001099,-0.000977,-0.000244,-108.642578,48.828125,150.146484,91,0.000000,0
100,0,1773659055939,0,0.000854,-0.000244,-0.000122,67.138672,90.332031,-2.257012,91,0.000000,0
100,0,1773659055940,0,0.000854,-0.000122,-0.000244,102.539062,89.111328,-1.937433,91,0.000000,0
100,0,1773659055942,0,0.000977,0.000000,-0.000122,124.511719,95.214844,-1.766990,91,0.000000,0
100,0,1773659055988,0,0.000732,0.000366,-0.000122,40.283203,59.814453,47.607422,91,0.000000,0
100,0,1773659055989,0,0.000854,0.000244,-0.000122,-39.062500,17.089844,68.359375,91,0.000000,0
100,0,1773659055990,0,0.000854,0.000122,-0.000122,-43.945312,14.648438,-2.278317,91,0.000000,0
100,0,1773659056038,0,0.000854,0.000000,-0.000244,-34.179688,20.751953,-2.150486,91,0.000000,0
100,0,1773659056040,0,0.000854,-0.000244,-0.000366,29.296875,43.945312,43.945312,91,0.000000,0
100,0,1773659056042,0,0.000854,-0.000122,-0.000244,52.490234,51.269531,39.062500,91,0.000000,0
100,0,1773659056087,0,0.000854,0.000122,-0.000122,31.738281,50.048828,-1.830906,91,0.000000,0
100,0,1773659056088,0,0.000977,0.000122,0.000000,-13.427734,37.841797,61.035156,91,0.000000,0
100,0,1773659056089,0,0.000977,0.000000,-0.000122,-20.751953,36.621094,-2.107875,91,0.000000,0
100,0,1773659056135,0,0.000977,-0.000122,-0.000122,9.765625,43.945312,-2.001348,91,0.000000,0
100,0,1773659056137,0,0.000854,0.000000,-0.000244,24.414062,56.152344,-1.937433,91,0.000000,0
100,0,1773659056138,0,0.000854,0.000000,-0.000122,21.972656,53.710938,-1.937433,91,0.000000,0
100,0,1773659056183,0,0.000977,0.000000,-0.000122,17.089844,59.814453,-1.937433,91,0.000000,0
100,0,1773659056184,0,0.000977,0.000000,-0.000122,14.648438,65.917969,54.931641,91,0.000000,0
100,0,1773659056185,0,0.000854,-0.000122,-0.000122,15.869141,59.814453,56.152344,91,0.000000,0
100,0,1773659056232,0,0.000977,-0.000122,-0.000122,17.089844,59.814453,58.593750,91,0.000000,0
100,0,1773659056235,0,0.000977,-0.000122,-0.000122,23.193359,57.373047,-2.065264,91,0.000000,0
100,0,1773659056282,0,0.000977,-0.000122,-0.000122,23.193359,61.035156,63.476562,91,0.000000,0
100,0,1773659056285,0,0.001099,-0.000122,-0.000122,21.972656,61.035156,69.580078,91,0.000000,0
100,0,1773659056287,0,0.001099,0.000000,-0.000122,21.972656,68.359375,-2.342233,91,0.000000,0
100,0,1773659056330,0,0.001221,0.000000,0.000000,20.751953,73.242188,89.111328,91,0.000000,0
100,0,1773659056333,0,0.001221,0.000000,0.000000,12.207031,91.552734,112.304688,91,0.000000,0
100,0,1773659056337,0,0.001221,0.000000,-0.000122,10.986328,98.876953,119.628906,91,0.000000,0
100,0,1773659056476,0,0.001343,-0.000122,-0.000244,31.738281,108.642578,130.615234,91,0.000000,0
100,0,1773659056478,0,0.001343,-0.000122,-0.000244,67.138672,119.628906,135.498047,91,0.000000,0
100,0,1773659056479,0,0.001465,-0.000122,-0.000366,93.994141,122.070312,139.160156,91,0.000000,0
100,0,1773659056573,0,0.001709,0.000000,-0.000488,137.939453,137.939453,-3.514024,91,0.000000,0
100,0,1773659056577,0,0.001831,0.000488,-0.000977,222.167969,161.132812,-3.471413,91,0.000000,0
100,0,1773659056578,0,0.000488,0.000244,-0.000977,65.917969,97.656250,-1.830906,91,0.000000,0
100,0,1773659056622,0,0.000488,-0.000366,0.000366,185.546875,72.021484,-1.042611,91,0.000000,0
100,0,1773659056623,0,0.000000,0.000610,-0.000366,114.746094,-13.427734,-42.724609,91,0.000000,0
100,0,1773659056624,0,0.000000,0.000122,-0.000122,-17.089844,-129.394531,-97.656250,91,0.000000,0
100,0,1773659056671,0,0.000122,0.000122,-0.000244,-48.828125,-175.781250,1.066613,91,0.000000,0
100,0,1773659056672,0,0.000244,0.000122,-0.000122,-91.552734,-240.478516,1.620550,91,0.000000,0
100,0,1773659056673,0,0.000488,0.000000,-0.000122,-98.876953,-257.568359,-161.132812,91,0.000000,0
100,0,1773659056719,0,0.000610,0.000000,-0.000122,-104.980469,-280.761719,2.174488,91,0.000000,0
100,0,1773659056720,0,0.000854,0.000000,-0.000122,-124.511719,-310.058594,2.494067,91,0.000000,0
100,0,1773659056722,0,0.000977,0.000000,-0.000122,-130.615234,-311.279297,2.664510,91,0.000000,0
100,0,1773659056768,0,0.001099,0.000000,-0.000122,-124.511719,-297.851562,-229.492188,91,0.000000,0
100,0,1773659056769,0,0.001221,0.000000,-0.000122,-101.318359,-295.410156,3.239752,91,0.000000,0
100,0,1773659056770,0,0.001221,0.000000,-0.000122,-100.097656,-297.851562,3.367584,91,0.000000,0
100,0,1773659056817,0,0.001465,-0.000122,-0.000244,-97.656250,-311.279297,-261.230469,91,0.000000,0
100,0,1773659056818,0,0.001709,-0.000122,-0.000244,-74.462891,-321.044922,3.665858,91,0.000000,0
100,0,1773659056819,0,0.001831,0.000000,-0.000244,-83.007812,-325.927734,3.601943,91,0.000000,0
100,0,1773659056866,0,0.001831,-0.000366,0.000000,-103.759766,-312.500000,-250.244141,91,0.000000,0
100,0,1773659056867,0,0.001831,-0.000366,0.000244,-75.683594,-260.009766,-223.388672,91,0.000000,0
100,0,1773659056868,0,0.001831,-0.000366,0.000366,-73.242188,-205.078125,2.728426,91,0.000000,0
100,0,1773659056914,0,0.001831,-0.000732,0.000488,-139.160156,-128.173828,1.599245,91,0.000000,0
100,0,1773659056917,0,0.001343,-0.001831,0.000610,-142.822266,-107.421875,-85.449219,91,0.000000,0
100,0,1773659056918,0,0.001343,-0.001831,0.000854,-85.449219,-70.800781,-42.724609,91,0.000000,0
100,0,1773659056964,0,0.001343,-0.001343,0.000854,-18.310547,12.207031,51.269531,91,0.000000,0
100,0,1773659056965,0,0.001465,-0.001099,0.000854,0.000000,69.580078,-2.981392,91,0.000000,0
100,0,1773659056967,0,0.001465,-0.000854,0.000732,-3.662109,103.759766,140.380859,91,0.000000,0
100,0,1773659057013,0,0.000977,0.000488,-0.000732,21.972656,130.615234,103.759766,91,0.000000,0
100,0,1773659057017,0,0.001831,0.001831,-0.000122,54.931641,100.097656,67.138672,91,0.000000,0
100,0,1773659057018,0,0.001831,0.001343,0.000488,-134.277344,128.173828,-3.450108,91,0.000000,0
100,0,1773659057060,0,0.001831,-0.001465,0.000000,-100.097656,67.138672,-4.494067,91,0.000000,0
100,0,1773659057063,0,0.000854,0.000122,-0.000366,-8.544922,78.125000,-4.557983,91,0.000000,0
100,0,1773659057064,0,0.000488,0.000122,-0.000610,-137.939453,34.179688,-5.090615,91,0.000000,0
100,0,1773659057110,0,0.000977,-0.000488,0.000000,-194.091797,31.738281,-4.195793,91,0.000000,0
100,0,1773659057112,0,0.000977,-0.000732,-0.000244,-56.152344,63.476562,-3.002697,91,0.000000,0
100,0,1773659057114,0,0.000977,-0.000244,-0.000122,13.427734,87.890625,-2.384844,91,0.000000,0
100,0,1773659057207,0,0.000854,-0.000122,-0.000122,58.593750,83.007812,40.283203,91,0.000000,0
100,0,1773659057208,0,0.000977,0.000000,-0.000122,106.201172,89.111328,-1.362190,91,0.000000,0
100,0,1773659057210,0,0.000854,0.000000,-0.000122,111.083984,87.890625,-1.362190,91,0.000000,0
100,0,1773659057256,0,0.000732,0.000366,-0.000122,31.738281,48.828125,-1.575243,91,0.000000,0
100,0,1773659057258,0,0.000854,-0.000244,-0.000366,35.400391,50.048828,32.958984,91,0.000000,0
100,0,1773659057259,0,0.000854,-0.000244,-0.000366,65.917969,63.476562,-1.447411,91,0.000000,0
100,0,1773659057304,0,0.000854,0.000122,-0.000244,67.138672,67.138672,-1.553937,91,0.000000,0
100,0,1773659057307,0,0.000854,0.000244,-0.000122,13.427734,56.152344,47.607422,91,0.000000,0
100,0,1773659057310,0,0.000854,0.000244,-0.000122,-10.986328,53.710938,61.035156,91,0.000000,0
100,0,1773659057353,0,0.000854,0.000000,-0.000122,-45.166016,43.945312,76.904297,91,0.000000,0
100,0,1773659057354,0,0.000854,-0.000244,-0.000244,-15.869141,59.814453,-2.320928,91,0.000000,0
100,0,1773659057355,0,0.000854,-0.000122,-0.000244,3.662109,64.697266,-2.278317,91,0.000000,0
100,0,1773659057402,0,0.000977,0.000000,-0.000244,8.544922,69.580078,-2.384844,91,0.000000,0
100,0,1773659057404,0,0.000977,0.000000,-0.000122,-1.220703,63.476562,-2.491370,91,0.000000,0
100,0,1773659057405,0,0.000977,0.000000,-0.000122,-3.662109,62.255859,-2.533981,91,0.000000,0
100,0,1773659057451,0,0.000977,-0.000122,-0.000122,7.324219,63.476562,86.669922,91,0.000000,0
100,0,1773659057454,0,0.000977,-0.000244,-0.000122,23.193359,68.359375,84.228516,91,0.000000,0
100,0,1773659057457,0,0.000977,-0.000122,-0.000244,26.855469,69.580078,84.228516,91,0.000000,0
100,0,1773659057500,0,0.001099,-0.000122,-0.000122,37.841797,75.683594,85.449219,91,0.000000,0
100,0,1773659057502,0,0.001221,0.000000,0.000000,48.828125,78.125000,90.332031,91,0.000000,0
100,0,1773659057503,0,0.001221,0.000000,0.000000,37.841797,85.449219,-2.683118,91,0.000000,0
100,0,1773659057548,0,0.001343,0.000000,0.000000,25.634766,98.876953,-2.917476,91,0.000000,0
100,0,1773659057549,0,0.001343,-0.000122,-0.000244,31.738281,113.525391,-3.173139,91,0.000000,0
100,0,1773659057549,0,0.001343,-0.000122,-0.000244,63.476562,118.408203,-3.258361,91,0.000000,0
100,0,1773659057596,0,0.001465,0.000000,-0.000366,83.007812,129.394531,137.939453,91,0.000000,0
100,0,1773659057598,0,0.001587,0.000000,-0.000488,122.070312,146.484375,-3.514024,91,0.000000,0
100,0,1773659057598,0,0.001709,0.000122,-0.000610,145.263672,151.367188,-3.556635,91,0.000000,0
100,0,1773659057647,0,0.001831,0.000244,-0.000977,180.664062,163.574219,146.484375,91,0.000000,0
100,0,1773659057648,0,0.001587,0.000244,-0.001099,198.974609,152.587891,-3.663161,91,0.000000,0
100,0,1773659057652,0,0.001465,0.000000,-0.000488,172.119141,129.394531,-3.790993,91,0.000000,0
100,0,1773659057695,0,0.001587,-0.000244,-0.000244,164.794922,114.746094,-3.194445,91,0.000000,0
100,0,1773659057697,0,0.001587,0.000000,-0.000488,136.718750,136.718750,-2.384844,91,0.000000,0
100,0,1773659057699,0,0.001465,0.000000,-0.000610,130.615234,131.835938,-1.937433,91,0.000000,0
100,0,1773659057743,0,0.000244,0.000366,-0.000366,108.642578,63.476562,20.751953,91,0.000000,0
100,0,1773659057746,0,0.000732,-0.001221,0.000122,113.525391,45.166016,-2.448760,91,0.000000,0
100,0,1773659057748,0,0.000488,-0.000732,-0.000122,76.904297,-6.103516,-2.576591,91,0.000000,0
100,0,1773659057792,0,0.000000,0.000610,-0.000610,147.705078,-19.531250,-25.634766,91,0.000000,0
100,0,1773659057793,0,0.000000,0.000854,-0.000366,34.179688,-52.490234,-72.021484,91,0.000000,0
100,0,1773659057793,0,-0.000122,0.000488,-0.000244,-4.882812,-114.746094,0.257012,91,0.000000,0
100,0,1773659057841,0,0.000000,0.000122,-0.000244,-45.166016,-169.677734,0.320928,91,0.000000,0
100,0,1773659057842,0,0.000122,0.000244,-0.000122,-57.373047,-219.726562,0.810950,91,0.000000,0
100,0,1773659057844,0,0.000244,0.000244,-0.000122,-72.021484,-235.595703,1.002697,91,0.000000,0
100,0,1773659057890,0,0.000488,0.000244,-0.000122,-92.773438,-263.671875,1.556635,91,0.000000,0
100,0,1773659057892,0,0.000610,0.000122,0.000000,-100.097656,-285.644531,1.982740,91,0.000000,0
100,0,1773659057893,0,0.000732,0.000122,0.000000,-103.759766,-297.851562,2.217099,91,0.000000,0
100,0,1773659057938,0,0.000854,0.000122,0.000000,-115.966797,-322.265625,-212.402344,91,0.000000,0
100,0,1773659057938,0,0.001099,0.000000,-0.000122,-104.980469,-313.720703,3.154531,91,0.000000,0
100,0,1773659057942,0,0.001221,0.000000,-0.000122,-96.435547,-307.617188,3.346279,91,0.000000,0
100,0,1773659057987,0,0.001343,0.000000,-0.000244,-67.138672,-310.058594,-261.230469,91,0.000000,0
100,0,1773659057988,0,0.001587,0.000000,-0.000244,-40.283203,-317.382812,-272.216797,91,0.000000,0
100,0,1773659057990,0,0.001709,0.000000,-0.000244,-41.503906,-328.369141,-273.437500,91,0.000000,0
100,0,1773659058036,0,0.001831,0.000000,-0.000122,-74.462891,-339.355469,3.708469,91,0.000000,0
100,0,1773659058038,0,0.001831,-0.000488,0.000000,-89.111328,-318.603516,3.644553,91,0.000000,0
100,0,1773659058040,0,0.001831,-0.000488,-0.000244,-68.359375,-312.500000,3.538026,91,0.000000,0
100,0,1773659058085,0,0.001831,-0.000488,0.000732,-114.746094,-212.402344,-228.271484,91,0.000000,0
100,0,1773659058086,0,0.001709,-0.000977,0.000122,-191.650391,-156.250000,1.620550,91,0.000000,0
100,0,1773659058087,0,0.001587,-0.001831,0.000610,-172.119141,-134.277344,0.789644,91,0.000000,0
100,0,1773659058133,0,0.001221,-0.001831,0.001099,-20.751953,-52.490234,-7.324219,91,0.000000,0
100,0,1773659058133,0,0.001343,-0.001343,0.001099,-1.220703,7.324219,-2.171791,91,0.000000,0
100,0,1773659058139,0,0.001465,-0.001099,0.001099,-8.544922,53.710938,-2.960087,91,0.000000,0
100,0,1773659058183,0,0.001587,0.000000,0.000610,-54.931641,148.925781,135.498047,91,0.000000,0
100,0,1773659058185,0,0.001343,0.001831,-0.001343,123.291016,53.710938,35.400391,91,0.000000,0
100,0,1773659058187,0,0.001831,0.001831,0.000732,-113.525391,145.263672,133.056641,91,0.000000,0
100,0,1773659058231,0,0.001831,-0.001709,0.000000,-177.001953,74.462891,192.871094,91,0.000000,0
100,0,1773659058234,0,0.001343,-0.000122,-0.000122,114.746094,93.994141,194.091797,91,0.000000,0
100,0,1773659058280,0,0.001099,0.000244,-0.000366,-8.544922,63.476562,231.933594,91,0.000000,0
100,0,1773659058282,0,0.000488,0.000122,-0.000366,-208.740234,31.738281,-4.366236,91,0.000000,0
100,0,1773659058283,0,0.000732,-0.000610,-0.000366,-140.380859,24.414062,-3.748382,91,0.000000,0
100,0,1773659058329,0,0.001099,-0.000610,-0.000244,-51.269531,76.904297,109.863281,91,0.000000,0
100,0,1773659058330,0,0.000854,-0.000122,-0.000122,70.800781,91.552734,57.373047,91,0.000000,0
100,0,1773659058333,0,0.000854,-0.000122,-0.000244,95.214844,93.994141,32.958984,91,0.000000,0
100,0,1773659058378,0,0.000854,0.000122,-0.000122,108.642578,96.435547,-1.468716,91,0.000000,0
100,0,1773659058378,0,0.000854,0.000244,-0.000122,-21.972656,32.958984,-1.958738,91,0.000000,0
100,0,1773659058379,0,0.000854,0.000122,-0.000244,-26.855469,30.517578,59.814453,91,0.000000,0
100,0,1773659058425,0,0.000854,0.000000,-0.000244,-35.400391,25.634766,56.152344,91,0.000000,0
100,0,1773659058428,0,0.000854,-0.000122,-0.000244,10.986328,50.048828,36.621094,91,0.000000,0
100,0,1773659058430,0,0.000854,-0.000122,-0.000366,31.738281,54.931641,-1.532632,91,0.000000,0
100,0,1773659058475,0,0.000854,0.000000,-0.000122,42.724609,57.373047,-1.468716,91,0.000000,0
100,0,1773659058477,0,0.000854,0.000122,-0.000122,19.531250,52.490234,34.179688,91,0.000000,0
100,0,1773659058478,0,0.000977,0.000122,0.000000,-1.220703,56.152344,37.841797,91,0.000000,0
100,0,1773659058524,0,0.000854,0.000000,-0.000122,-31.738281,41.503906,46.386719,91,0.000000,0
100,0,1773659058572,0,0.000977,-0.000122,-0.000122,-1.220703,52.490234,35.400391,91,0.000000,0
100,0,1773659058572,0,0.000854,-0.000122,-0.000122,13.427734,54.931641,34.179688,91,0.000000,0
100,0,1773659058577,0,0.000854,0.000000,-0.000122,20.751953,54.931641,31.738281,91,0.000000,0
100,0,1773659058621,0,0.000977,0.000000,0.000000,1.220703,48.828125,40.283203,91,0.000000,0
100,0,1773659058623,0,0.000977,0.000000,-0.000122,-1.220703,59.814453,-1.916127,91,0.000000,0
100,0,1773659058623,0,0.000977,0.000000,-0.000122,0.000000,62.255859,-1.958738,91,0.000000,0
100,0,1773659058669,0,0.000977,0.000000,-0.000122,1.220703,70.800781,-2.065264,91,0.000000,0
100,0,1773659058670,0,0.001099,0.000000,-0.000244,-1.220703,84.228516,-2.320928,91,0.000000,0
100,0,1773659058670,0,0.000977,0.000000,-0.000122,2.441406,90.332031,81.787109,91,0.000000,0
100,0,1773659058768,0,0.001221,0.000122,0.000000,-4.882812,95.214844,-2.683118,91,0.000000,0
100,0,1773659058769,0,0.001221,0.000000,0.000000,-13.427734,104.980469,-2.874866,91,0.000000,0
100,0,1773659058770,0,0.001221,0.000000,-0.000122,-8.544922,109.863281,-2.981392,91,0.000000,0
100,0,1773659058816,0,0.001343,-0.000244,-0.000122,13.427734,119.628906,-3.109224,91,0.000000,0
100,0,1773659058817,0,0.001831,0.000122,-0.000488,106.201172,166.015625,140.380859,91,0.000000,0
100,0,1773659058819,0,0.001831,0.000244,-0.000732,128.173828,178.222656,136.718750,91,0.000000,0
100,0,1773659058865,0,0.001709,0.000366,-0.001099,151.367188,186.767578,135.498047,91,0.000000,0
100,0,1773659058867,0,0.001343,0.000000,-0.000732,133.056641,144.042969,140.380859,91,0.000000,0
100,0,1773659058868,0,0.001343,-0.000244,-0.000244,123.291016,122.070312,141.601562,91,0.000000,0
100,0,1773659058913,0,0.001465,-0.000244,-0.000488,114.746094,129.394531,-2.661813,91,0.000000,0
100,0,1773659058914,0,0.000977,0.000000,-0.000610,86.669922,114.746094,-1.916127,91,0.000000,0
100,0,1773659058917,0,0.000488,0.000244,-0.000977,76.904297,86.669922,20.751953,91,0.000000,0
100,0,1773659059012,0,0.000610,-0.000732,0.000366,125.732422,81.787109,-1.553937,91,0.000000,0
100,0,1773659059014,0,0.000610,-0.000488,0.000000,59.814453,10.986328,37.841797,91,0.000000,0
100,0,1773659059015,0,0.000244,0.000000,-0.000366,107.421875,18.310547,-0.786947,91,0.000000,0
100,0,1773659059060,0,0.000000,0.000854,-0.000488,48.828125,-3.662109,-78.125000,91,0.000000,0
100,0,1773659059062,0,0.000122,0.000122,-0.000244,-161.132812,-177.001953,-139.160156,91,0.000000,0
100,0,1773659059063,0,0.000244,0.000000,-0.000366,-174.560547,-194.091797,-156.250000,91,0.000000,0
100,0,1773659059109,0,0.000488,0.000000,-0.000366,-190.429688,-225.830078,2.238404,91,0.000000,0
100,0,1773659059112,0,0.000732,-0.000122,-0.000366,-180.664062,-253.906250,-214.843750,91,0.000000,0
100,0,1773659059113,0,0.000854,0.000000,-0.000366,-179.443359,-264.892578,2.941478,91,0.000000,0
100,0,1773659059157,0,0.001099,-0.000122,-0.000366,-173.339844,-264.892578,3.282363,91,0.000000,0
100,0,1773659059158,0,0.001221,-0.000244,-0.000366,-162.353516,-261.230469,3.452806,91,0.000000,0
100,0,1773659059159,0,0.001221,-0.000244,-0.000366,-158.691406,-266.113281,3.559332,91,0.000000,0
100,0,1773659059206,0,0.001465,-0.000244,-0.000366,-161.132812,-281.982422,3.687163,91,0.000000,0
100,0,1773659059207,0,0.001831,-0.000244,-0.000488,-167.236328,-303.955078,3.729774,91,0.000000,0
100,0,1773659059207,0,0.001831,-0.000244,-0.000488,-174.560547,-310.058594,3.687163,91,0.000000,0
100,0,1773659059255,0,0.001831,-0.000488,-0.000610,-213.623047,-319.824219,3.282363,91,0.000000,0
100,0,1773659059257,0,0.001831,-0.000854,-0.000244,-192.871094,-303.955078,2.941478,91,0.000000,0
100,0,1773659059258,0,0.001831,-0.000610,0.000122,-142.822266,-252.685547,-216.064453,91,0.000000,0
100,0,1773659059303,0,0.001831,0.000000,0.000122,-185.546875,-174.560547,1.876214,91,0.000000,0
100,0,1773659059305,0,0.001709,-0.001343,0.000000,-277.099609,-144.042969,1.087918,91,0.000000,0
100,0,1773659059307,0,0.001465,-0.001831,0.000122,-241.699219,-115.966797,0.491370,91,0.000000,0
100,0,1773659059353,0,0.001221,-0.001831,0.000854,-86.669922,-85.449219,-1.149137,91,0.000000,0
100,0,1773659059357,0,0.001343,-0.001099,0.000732,-75.683594,-2.441406,106.201172,91,0.000000,0
100,0,1773659059358,0,0.001465,-0.001099,0.000732,-79.345703,29.296875,-3.343582,91,0.000000,0
100,0,1773659059402,0,0.001221,-0.000854,0.000610,-70.800781,96.435547,-4.004045,91,0.000000,0
100,0,1773659059402,0,0.001099,0.001221,-0.000977,25.634766,120.849609,-2.789644,91,0.000000,0
100,0,1773659059403,0,0.000732,0.001831,-0.000732,-1.220703,73.242188,-2.448760,91,0.000000,0
100,0,1773659059450,0,0.001831,0.000488,0.000732,-178.222656,75.683594,167.236328,91,0.000000,0
100,0,1773659059452,0,0.001709,-0.000732,0.000000,-63.476562,47.607422,-4.494067,91,0.000000,0
100,0,1773659059453,0,0.001709,-0.000122,0.000122,-2.441406,54.931641,202.636719,91,0.000000,0
100,0,1773659059498,0,0.000977,-0.000122,-0.000366,-175.781250,4.882812,249.023438,91,0.000000,0
100,0,1773659059502,0,0.001099,-0.000488,0.000000,-175.781250,45.166016,-4.344931,91,0.000000,0
100,0,1773659059503,0,0.000854,-0.000854,-0.000244,-39.062500,84.228516,-3.705772,91,0.000000,0
100,0,1773659059547,0,0.000854,0.000000,-0.000122,72.021484,111.083984,90.332031,91,0.000000,0
100,0,1773659059548,0,0.000732,0.000122,-0.000244,52.490234,79.345703,73.242188,91,0.000000,0
100,0,1773659059550,0,0.000854,0.000122,-0.000122,23.193359,65.917969,63.476562,91,0.000000,0
100,0,1773659059597,0,0.000977,0.000000,0.000000,20.751953,63.476562,47.607422,91,0.000000,0
100,0,1773659059600,0,0.000854,0.000244,-0.000122,-34.179688,26.855469,-1.916127,91,0.000000,0
100,0,1773659059601,0,0.000977,0.000000,0.000000,-45.166016,23.193359,-1.894822,91,0.000000,0
100,0,1773659059645,0,0.000977,0.000000,-0.000122,-3.662109,35.400391,39.062500,91,0.000000,0
100,0,1773659059648,0,0.000854,0.000000,-0.000122,6.103516,39.062500,-1.511327,91,0.000000,0
100,0,1773659059649,0,0.000854,0.000000,-0.000122,18.310547,45.166016,-1.490022,91,0.000000,0
100,0,1773659059694,0,0.000854,0.000122,-0.000122,3.662109,48.828125,-1.596548,91,0.000000,0
100,0,1773659059697,0,0.000854,0.000122,0.000000,-30.517578,37.841797,-1.724380,91,0.000000,0
100,0,1773659059698,0,0.000977,0.000000,0.000000,-26.855469,41.503906,-1.703074,91,0.000000,0
100,0,1773659059792,0,0.000854,0.000000,0.000000,-10.986328,46.386719,-1.639159,91,0.000000,0
100,0,1773659059792,0,0.000854,0.000000,0.000000,-4.882812,47.607422,-1.617853,91,0.000000,0
100,0,1773659059794,0,0.000977,0.000000,0.000000,-7.324219,48.828125,-1.639159,91,0.000000,0
100,0,1773659059840,0,0.000977,0.000000,0.000000,-8.544922,46.386719,-1.596548,91,0.000000,0
100,0,1773659059842,0,0.000977,0.000000,0.000000,12.207031,50.048828,29.296875,91,0.000000,0
100,0,1773659059843,0,0.000977,0.000000,0.000000,12.207031,51.269531,-1.553937,91,0.000000,0
100,0,1773659059888,0,0.000977,0.000000,0.000000,0.000000,58.593750,-1.681769,91,0.000000,0
100,0,1773659059889,0,0.001099,0.000000,0.000000,-9.765625,65.917969,48.828125,91,0.000000,0
100,0,1773659059891,0,0.001099,0.000000,0.000000,-10.986328,70.800781,53.710938,91,0.000000,0
100,0,1773659059937,0,0.001099,0.000000,0.000000,-12.207031,86.669922,-2.129180,91,0.000000,0
100,0,1773659059938,0,0.001221,0.000122,0.000000,-12.207031,89.111328,-2.363539,91,0.000000,0
100,0,1773659059939,0,0.001221,0.000244,0.000000,-24.414062,102.539062,85.449219,91,0.000000,0
100,0,1773659060034,0,0.001221,0.000000,0.000000,-34.179688,109.863281,-2.725729,91,0.000000,0
100,0,1773659060035,0,0.001343,0.000000,-0.000122,-4.882812,126.953125,-2.789644,91,0.000000,0
100,0,1773659060084,0,0.001343,0.000000,-0.000122,4.882812,133.056641,-2.810950,91,0.000000,0
100,0,1773659060087,0,0.001587,0.000122,-0.000244,42.724609,148.925781,-2.896171,91,0.000000,0
100,0,1773659060088,0,0.001343,0.000366,-0.000977,61.035156,179.443359,-3.087918,91,0.000000,0
100,0,1773659060132,0,0.001221,0.000000,-0.000732,26.855469,145.263672,128.173828,91,0.000000,0
100,0,1773659060136,0,0.001709,-0.000610,-0.000244,28.076172,135.498047,120.849609,91,0.000000,0
100,0,1773659060138,0,0.001343,0.000000,-0.000610,29.296875,126.953125,73.242188,91,0.000000,0
100,0,1773659060181,0,0.000732,0.000122,-0.000610,-13.427734,117.187500,-1.404800,91,0.000000,0
100,0,1773659060182,0,0.000732,-0.001221,0.000244,-46.386719,81.787109,-2.406149,91,0.000000,0
100,0,1773659060184,0,0.000854,-0.000610,0.000000,-67.138672,58.593750,-1.191748,91,0.000000,0
100,0,1773659060230,0,0.000000,0.000366,-0.000488,-18.310547,48.828125,-58.593750,91,0.000000,0
100,0,1773659060232,0,0.000000,0.000488,-0.000488,-130.615234,9.765625,-111.083984,91,0.000000,0
100,0,1773659060233,0,0.000000,0.000244,-0.000366,-157.470703,-18.310547,-128.173828,91,0.000000,0
100,0,1773659060277,0,0.000122,0.000000,-0.000244,-172.119141,-63.476562,-150.146484,91,0.000000,0
100,0,1773659060279,0,0.000122,0.000000,-0.000488,-187.988281,-90.332031,2.004046,91,0.000000,0
100,0,1773659060282,0,0.000122,0.000000,-0.000488,-194.091797,-118.408203,2.259709,91,0.000000,0
100,0,1773659060327,0,0.000366,-0.000122,-0.000488,-205.078125,-152.587891,-208.740234,91,0.000000,0
100,0,1773659060327,0,0.000610,-0.000244,-0.000488,-209.960938,-183.105469,-227.050781,91,0.000000,0
100,0,1773659060328,0,0.000732,-0.000366,-0.000488,-213.623047,-197.753906,3.048005,91,0.000000,0
100,0,1773659060424,0,0.000977,-0.000366,-0.000488,-212.402344,-212.402344,-242.919922,91,0.000000,0
100,0,1773659060427,0,0.001099,-0.000366,-0.000610,-220.947266,-222.167969,3.324974,91,0.000000,0
100,0,1773659060428,0,0.001221,-0.000366,-0.000610,-230.712891,-229.492188,3.282363,91,0.000000,0
100,0,1773659060473,0,0.001343,-0.000488,-0.000610,-249.023438,-250.244141,-242.919922,91,0.000000,0
100,0,1773659060477,0,0.001831,-0.001099,-0.000732,-238.037109,-305.175781,2.685815,91,0.000000,0
100,0,1773659060477,0,0.001831,-0.001099,-0.000610,-209.960938,-301.513672,2.472762,91,0.000000,0
100,0,1773659060571,0,0.001831,-0.001221,0.000000,-120.849609,-277.099609,-183.105469,91,0.000000,0
100,0,1773659060574,0,0.001831,-0.000244,0.000244,-48.828125,-177.001953,-166.015625,91,0.000000,0
100,0,1773659060577,0,0.001709,-0.000244,0.000122,-91.552734,-172.119141,-146.484375,91,0.000000,0
100,0,1773659060620,0,0.001587,-0.001099,0.000244,-201.416016,-145.263672,0.448760,91,0.000000,0
100,0,1773659060622,0,0.001221,-0.001587,0.000610,-134.277344,-102.539062,-1.745685,91,0.000000,0
100,0,1773659060623,0,0.001465,-0.000977,0.000732,-9.765625,43.945312,-3.130529,91,0.000000,0
100,0,1773659060668,0,0.001587,0.000610,0.000610,-2.441406,125.732422,122.070312,91,0.000000,0
100,0,1773659060672,0,0.001343,0.001831,-0.000610,-3.662109,96.435547,-2.257012,91,0.000000,0
100,0,1773659060672,0,0.001465,0.001587,0.000244,-211.181641,46.386719,-3.748382,91,0.000000,0
100,0,1773659060717,0,0.001709,-0.001221,0.000000,-152.587891,41.503906,-4.238404,91,0.000000,0
100,0,1773659060718,0,0.001221,0.000000,-0.000366,-42.724609,26.855469,206.298828,91,0.000000,0
100,0,1773659060720,0,0.001099,0.000000,-0.000488,-183.105469,-4.882812,244.140625,91,0.000000,0
100,0,1773659060814,0,0.000977,-0.000610,-0.000244,-123.291016,40.283203,-3.876214,91,0.000000,0
100,0,1773659060816,0,0.000854,0.000000,-0.000366,21.972656,72.021484,109.863281,91,0.000000,0
100,0,1773659060818,0,0.000854,0.000000,-0.000122,21.972656,87.890625,-2.576591,91,0.000000,0
100,0,1773659060863,0,0.000977,0.000122,-0.000122,64.697266,91.552734,80.566406,91,0.000000,0
100,0,1773659060867,0,0.000977,0.000000,0.000000,-34.179688,29.296875,-1.916127,91,0.000000,0
100,0,1773659060867,0,0.000977,0.000000,0.000000,-13.427734,29.296875,-1.830906,91,0.000000,0
100,0,1773659060961,0,0.000854,-0.000122,-0.000244,15.869141,34.179688,-1.617853,91,0.000000,0
100,0,1773659060964,0,0.000854,0.000000,-0.000122,26.855469,45.166016,30.517578,91,0.000000,0
100,0,1773659060965,0,0.000854,0.000122,-0.000122,17.089844,46.386719,31.738281,91,0.000000,0
100,0,1773659061058,0,0.000854,0.000122,0.000000,-17.089844,36.621094,45.166016,91,0.000000,0
100,0,1773659061058,0,0.000977,0.000000,0.000000,-24.414062,36.621094,-1.809601,91,0.000000,0
100,0,1773659061063,0,0.000854,0.000000,-0.000122,8.544922,51.269531,39.062500,91,0.000000,0
100,0,1773659061107,0,0.000977,0.000000,0.000000,0.000000,50.048828,-1.724380,91,0.000000,0
100,0,1773659061108,0,0.000977,0.000000,0.000000,8.544922,59.814453,47.607422,91,0.000000,0
100,0,1773659061109,0,0.000977,0.000000,0.000000,6.103516,61.035156,-1.852211,91,0.000000,0
100,0,1773659061156,0,0.001099,0.000000,0.000000,-6.103516,68.359375,52.490234,91,0.000000,0
100,0,1773659061157,0,0.001099,0.000000,0.000000,-9.765625,72.021484,-2.001348,91,0.000000,0
100,0,1773659061158,0,0.001099,0.000000,0.000000,-14.648438,78.125000,-2.086570,91,0.000000,0
100,0,1773659061205,0,0.001221,0.000122,0.000000,-23.193359,81.787109,-2.235707,91,0.000000,0
100,0,1773659061207,0,0.001221,0.000000,0.000000,-37.841797,95.214844,79.345703,91,0.000000,0
100,0,1773659061209,0,0.001221,0.000000,0.000000,-30.517578,101.318359,81.787109,91,0.000000,0
100,0,1773659061254,0,0.001343,0.000000,-0.000122,-15.869141,114.746094,-2.448760,91,0.000000,0
100,0,1773659061257,0,0.001343,0.000000,-0.000122,-3.662109,125.732422,-2.470065,91,0.000000,0
100,0,1773659061257,0,0.001465,0.000000,-0.000122,-2.441406,135.498047,-2.470065,91,0.000000,0
100,0,1773659061302,0,0.001465,0.000000,-0.000244,6.103516,146.484375,87.890625,91,0.000000,0
100,0,1773659061303,0,0.001587,0.000122,-0.000488,35.400391,166.015625,87.890625,91,0.000000,0
100,0,1773659061304,0,0.001709,0.000244,-0.000610,56.152344,169.677734,-2.533981,91,0.000000,0
100,0,1773659061400,0,0.001465,0.000244,-0.000977,92.773438,186.767578,91.552734,91,0.000000,0
100,0,1773659061402,0,0.001221,-0.000122,-0.000610,64.697266,130.615234,114.746094,91,0.000000,0
100,0,1773659061403,0,0.001465,-0.000366,-0.000122,51.269531,114.746094,-3.045308,91,0.000000,0
100,0,1773659061448,0,0.001465,-0.000122,-0.000610,43.945312,122.070312,-2.661813,91,0.000000,0
100,0,1773659061450,0,0.000610,0.000244,-0.000732,-1.220703,108.642578,-1.000000,91,0.000000,0
100,0,1773659061452,0,0.000732,0.000000,-0.000366,-61.035156,65.917969,26.855469,91,0.000000,0
100,0,1773659061497,0,0.000000,0.000610,-0.000488,-61.035156,28.076172,-0.339536,91,0.000000,0
100,0,1773659061498,0,0.000122,0.000122,-0.000366,-155.029297,-37.841797,0.768339,91,0.000000,0
100,0,1773659061499,0,0.000122,0.000000,-0.000244,-140.380859,-63.476562,0.938781,91,0.000000,0
100,0,1773659061546,0,0.000122,0.000000,-0.000366,-136.718750,-96.435547,1.428803,91,0.000000,0
100,0,1773659061548,0,0.000244,0.000000,-0.000366,-134.277344,-135.498047,-167.236328,91,0.000000,0
100,0,1773659061549,0,0.000366,0.000000,-0.000366,-135.498047,-151.367188,-180.664062,91,0.000000,0
100,0,1773659061595,0,0.000610,0.000000,-0.000366,-135.498047,-180.664062,-207.519531,91,0.000000,0
100,0,1773659061598,0,0.000732,0.000000,-0.000366,-146.484375,-208.740234,2.792341,91,0.000000,0
100,0,1773659061599,0,0.000854,0.000000,-0.000244,-157.470703,-223.388672,2.898868,91,0.000000,0
100,0,1773659061643,0,0.001099,-0.000122,-0.000366,-177.001953,-230.712891,-233.154297,91,0.000000,0
100,0,1773659061647,0,0.001221,-0.000244,-0.000366,-181.884766,-241.699219,-239.257812,91,0.000000,0
100,0,1773659061648,0,0.001221,-0.000244,-0.000366,-184.326172,-246.582031,-241.699219,91,0.000000,0
100,0,1773659061692,0,0.001343,-0.000366,-0.000488,-190.429688,-262.451172,-240.478516,91,0.000000,0
100,0,1773659061693,0,0.001587,-0.000366,-0.000488,-174.560547,-283.203125,3.218447,91,0.000000,0
100,0,1773659061695,0,0.001587,-0.000244,-0.000488,-177.001953,-290.527344,3.154531,91,0.000000,0
100,0,1773659061742,0,0.001831,-0.000488,-0.000488,-203.857422,-301.513672,-224.609375,91,0.000000,0
100,0,1773659061742,0,0.001831,-0.000732,-0.000488,-189.208984,-291.748047,-213.623047,91,0.000000,0
100,0,1773659061743,0,0.001831,-0.000732,-0.000366,-173.339844,-283.203125,2.557983,91,0.000000,0
100,0,1773659061838,0,0.001831,-0.000610,0.000122,-93.994141,-208.740234,-201.416016,91,0.000000,0
100,0,1773659061838,0,0.001831,-0.000488,0.000122,-128.173828,-179.443359,-159.912109,91,0.000000,0
100,0,1773659061840,0,0.001831,-0.000977,0.000122,-152.587891,-157.470703,-139.160156,91,0.000000,0
100,0,1773659061887,0,0.001343,-0.001831,0.000244,-80.566406,-107.421875,0.470065,91,0.000000,0
100,0,1773659061888,0,0.001465,-0.000366,0.000122,30.517578,85.449219,-3.407498,91,0.000000,0
100,0,1773659061889,0,0.001709,0.000488,0.001099,10.986328,137.939453,150.146484,91,0.000000,0
100,0,1773659061936,0,0.001343,0.001831,-0.000366,40.283203,113.525391,-2.150486,91,0.000000,0
100,0,1773659061938,0,0.001587,0.000000,0.000488,-313.720703,25.634766,-4.515373,91,0.000000,0
100,0,1773659061939,0,0.001709,-0.001709,0.000122,-300.292969,36.621094,-5.005394,91,0.000000,0
100,0,1773659061985,0,0.001587,-0.000244,0.000000,-10.986328,54.931641,219.726562,91,0.000000,0
100,0,1773659061987,0,0.000366,0.000000,-0.000732,-256.347656,-30.517578,-5.324974,91,0.000000,0
100,0,1773659061988,0,0.000732,-0.000732,-0.000366,-206.298828,-14.648438,-4.664510,91,0.000000,0
100,0,1773659062033,0,0.000977,-0.000610,-0.000244,46.386719,83.007812,109.863281,91,0.000000,0
100,0,1773659062037,0,0.000732,0.000000,-0.000122,74.462891,95.214844,-2.193096,91,0.000000,0
100,0,1773659062037,0,0.000854,-0.000122,-0.000122,76.904297,93.994141,-2.022654,91,0.000000,0
100,0,1773659062083,0,0.000977,0.000000,0.000000,113.525391,100.097656,46.386719,91,0.000000,0
100,0,1773659062086,0,0.000732,0.000366,-0.000122,4.882812,42.724609,-2.001348,91,0.000000,0
100,0,1773659062088,0,0.000854,0.000244,0.000000,-21.972656,24.414062,62.255859,91,0.000000,0
100,0,1773659062131,0,0.000854,0.000122,-0.000122,-45.166016,7.324219,72.021484,91,0.000000,0
100,0,1773659062135,0,0.000977,0.000000,-0.000244,-34.179688,10.986328,64.697266,91,0.000000,0
100,0,1773659062137,0,0.000977,-0.000244,-0.000244,3.662109,21.972656,52.490234,91,0.000000,0
100,0,1773659062180,0,0.000854,-0.000122,-0.000244,72.021484,46.386719,-1.447411,91,0.000000,0
100,0,1773659062181,0,0.000854,0.000000,-0.000122,67.138672,45.166016,-1.468716,91,0.000000,0
100,0,1773659062182,0,0.000854,0.000122,-0.000122,46.386719,42.724609,31.738281,91,0.000000,0
100,0,1773659062228,0,0.000977,0.000244,0.000000,-4.882812,31.738281,-1.873517,91,0.000000,0
100,0,1773659062232,0,0.000977,-0.000122,-0.000122,-13.427734,34.179688,-1.873517,91,0.000000,0
100,0,1773659062233,0,0.000977,-0.000122,-0.000122,9.765625,41.503906,-1.788296,91,0.000000,0
100,0,1773659062277,0,0.000854,-0.000122,-0.000244,37.841797,51.269531,-1.681769,91,0.000000,0
100,0,1773659062278,0,0.000977,0.000000,-0.000122,34.179688,63.476562,-1.681769,91,0.000000,0
100,0,1773659062280,0,0.000854,0.000000,-0.000122,24.414062,73.242188,43.945312,91,0.000000,0
100,0,1773659062375,0,0.000977,0.000000,-0.000122,4.882812,56.152344,52.490234,91,0.000000,0
100,0,1773659062377,0,0.000977,0.000000,0.000000,13.427734,63.476562,53.710938,91,0.000000,0
100,0,1773659062378,0,0.000977,0.000000,0.000000,17.089844,59.814453,-1.937433,91,0.000000,0
100,0,1773659062423,0,0.000977,0.000000,0.000000,17.089844,59.814453,56.152344,91,0.000000,0
100,0,1773659062425,0,0.001099,0.000000,0.000000,10.986328,61.035156,61.035156,91,0.000000,0
100,0,1773659062427,0,0.001221,0.000000,0.000000,10.986328,79.345703,83.007812,91,0.000000,0
100,0,1773659062471,0,0.001221,0.000000,0.000000,-12.207031,102.539062,107.421875,91,0.000000,0
100,0,1773659062472,0,0.001343,-0.000122,-0.000244,0.000000,115.966797,114.746094,91,0.000000,0
100,0,1773659062473,0,0.001343,-0.000122,-0.000244,12.207031,119.628906,-3.045308,91,0.000000,0
100,0,1773659062521,0,0.001465,0.000000,-0.000244,48.828125,131.835938,119.628906,91,0.000000,0
100,0,1773659062522,0,0.001587,0.000122,-0.000366,72.021484,150.146484,-3.151834,91,0.000000,0
100,0,1773659062523,0,0.001587,0.000244,-0.000488,84.228516,153.808594,-3.215750,91,0.000000,0
100,0,1773659062618,0,0.001709,0.000366,-0.000854,111.083984,162.353516,-3.300971,91,0.000000,0
100,0,1773659062619,0,0.001587,0.000366,-0.000977,113.525391,168.457031,-3.471413,91,0.000000,0
100,0,1773659062620,0,0.001465,0.000122,-0.000977,80.566406,157.470703,-3.663161,91,0.000000,0
100,0,1773659062667,0,0.001831,-0.000610,0.000000,68.359375,118.408203,-3.663161,91,0.000000,0
100,0,1773659062668,0,0.000854,-0.000977,0.000122,97.656250,69.580078,-2.555286,91,0.000000,0
100,0,1773659062669,0,0.000732,-0.000732,0.000000,41.503906,45.166016,-2.448760,91,0.000000,0
100,0,1773659062716,0,0.000244,0.000366,-0.000488,130.615234,18.310547,-0.616505,91,0.000000,0
100,0,1773659062718,0,0.000000,0.000732,-0.000366,43.945312,-2.441406,-70.800781,91,0.000000,0
100,0,1773659062720,0,0.000000,0.000610,-0.000366,-10.986328,-35.400391,0.406149,91,0.000000,0
100,0,1773659062764,0,0.000000,0.000122,-0.000122,-48.828125,-101.318359,-97.656250,91,0.000000,0
100,0,1773659062766,0,0.000122,0.000122,-0.000244,-98.876953,-139.160156,-119.628906,91,0.000000,0
100,0,1773659062768,0,0.000122,0.000122,-0.000244,-122.070312,-168.457031,-131.835938,91,0.000000,0
100,0,1773659062813,0,0.000244,0.000122,-0.000366,-167.236328,-209.960938,1.812298,91,0.000000,0
100,0,1773659062814,0,0.000488,0.000000,-0.000244,-183.105469,-242.919922,2.259709,91,0.000000,0
100,0,1773659062814,0,0.000610,0.000000,-0.000244,-180.664062,-256.347656,2.494067,91,0.000000,0
100,0,1773659062862,0,0.000854,-0.000122,-0.000244,-167.236328,-279.541016,2.920173,91,0.000000,0
100,0,1773659062863,0,0.001099,0.000000,-0.000244,-155.029297,-278.320312,3.324974,91,0.000000,0
100,0,1773659062865,0,0.001221,-0.000122,-0.000244,-146.484375,-268.554688,3.431500,91,0.000000,0
100,0,1773659062911,0,0.001221,-0.000244,-0.000244,-135.498047,-272.216797,-283.203125,92,0.000000,0
100,0,1773659062914,0,0.001465,-0.000366,-0.000366,-107.421875,-279.541016,-270.996094,92,0.000000,0
100,0,1773659062915,0,0.001587,-0.000366,-0.000366,-76.904297,-286.865234,-273.437500,92,0.000000,0
100,0,1773659062960,0,0.001709,-0.000244,-0.000488,-75.683594,-318.603516,3.559332,92,0.000000,0
100,0,1773659062962,0,0.001831,-0.000732,-0.000244,-102.539062,-332.031250,-229.492188,92,0.000000,0
100,0,1773659062963,0,0.001831,-0.000732,-0.000122,-84.228516,-323.486328,-219.726562,92,0.000000,0
100,0,1773659063009,0,0.001831,-0.000366,0.000244,-26.855469,-245.361328,-214.843750,92,0.000000,0
100,0,1773659063012,0,0.001831,-0.000488,0.000488,-104.980469,-166.015625,-174.560547,92,0.000000,0
100,0,1773659063013,0,0.001831,-0.000732,0.000488,-124.511719,-136.718750,1.599245,92,0.000000,0
100,0,1773659063057,0,0.001343,-0.001831,0.000488,-128.173828,-115.966797,-78.125000,92,0.000000,0
100,0,1773659063058,0,0.001221,-0.001587,0.000854,-31.738281,-69.580078,-6.103516,92,0.000000,0
100,0,1773659063058,0,0.001343,-0.001343,0.000977,-9.765625,-42.724609,35.400391,92,0.000000,0
100,0,1773659063106,0,0.001465,-0.001099,0.000854,14.648438,45.166016,109.863281,92,0.000000,0
100,0,1773659063107,0,0.001343,-0.000488,0.000366,10.986328,70.800781,141.601562,92,0.000000,0
100,0,1773659063108,0,0.001587,0.000000,0.000610,4.882812,129.394531,-3.577940,92,0.000000,0
100,0,1773659063155,0,0.001709,0.001831,-0.000610,111.083984,125.732422,-1.553937,92,0.000000,0
100,0,1773659063157,0,0.001465,-0.000610,0.000488,-377.197266,26.855469,-4.621899,92,0.000000,0
100,0,1773659063158,0,0.001831,-0.001831,-0.000244,-268.554688,18.310547,-5.048005,92,0.000000,0
100,0,1773659063203,0,0.001099,-0.000366,-0.000244,13.427734,35.400391,-5.239752,92,0.000000,0
100,0,1773659063205,0,0.000977,0.000244,-0.000244,-203.857422,-2.441406,-5.410195,92,0.000000,0
100,0,1773659063207,0,0.000610,-0.000244,-0.000366,-195.312500,26.855469,-4.259709,92,0.000000,0
100,0,1773659063252,0,0.001099,-0.000977,-0.000244,14.648438,87.890625,-3.087918,92,0.000000,0
100,0,1773659063252,0,0.000854,0.000000,-0.000122,194.091797,131.835938,-1.660464,92,0.000000,0
100,0,1773659063257,0,0.000854,0.000244,-0.000122,186.767578,114.746094,35.400391,92,0.000000,0
100,0,1773659063302,0,0.000854,0.000488,0.000000,25.634766,67.138672,51.269531,92,0.000000,0
100,0,1773659063302,0,0.000854,0.000244,-0.000122,-41.503906,14.648438,-2.278317,92,0.000000,0
100,0,1773659063303,0,0.000854,0.000244,-0.000244,-53.710938,13.427734,-2.384844,92,0.000000,0
100,0,1773659063350,0,0.000854,-0.000244,-0.000244,-56.152344,9.765625,-2.150486,92,0.000000,0
100,0,1773659063352,0,0.000854,-0.000366,-0.000366,28.076172,40.283203,40.283203,92,0.000000,0
100,0,1773659063353,0,0.000854,-0.000244,-0.000366,69.580078,48.828125,28.076172,92,0.000000,0
100,0,1773659063398,0,0.000854,0.000000,-0.000244,65.917969,50.048828,28.076172,92,0.000000,0
100,0,1773659063400,0,0.000854,0.000244,-0.000122,3.662109,35.400391,48.828125,92,0.000000,0
100,0,1773659063402,0,0.000854,0.000122,-0.000122,-28.076172,25.634766,57.373047,92,0.000000,0
100,0,1773659063497,0,0.000977,-0.000244,-0.000122,-19.531250,30.517578,51.269531,92,0.000000,0
100,0,1773659063498,0,0.000854,-0.000122,-0.000244,18.310547,42.724609,43.945312,92,0.000000,0
100,0,1773659063499,0,0.000854,-0.000122,-0.000244,26.855469,42.724609,43.945312,92,0.000000,0
100,0,1773659063545,0,0.000854,0.000000,-0.000122,18.310547,41.503906,-1.830906,92,0.000000,0
100,0,1773659063547,0,0.000977,0.000000,-0.000122,0.000000,43.945312,-1.958738,92,0.000000,0
100,0,1773659063549,0,0.000854,-0.000122,-0.000122,13.427734,48.828125,-2.065264,92,0.000000,0
100,0,1773659063642,0,0.000977,0.000000,-0.000122,21.972656,53.710938,-2.150486,92,0.000000,0
100,0,1773659063644,0,0.000977,0.000000,-0.000122,23.193359,67.138672,-2.427454,92,0.000000,0
100,0,1773659063691,0,0.001099,0.000000,-0.000122,21.972656,70.800781,-2.512676,92,0.000000,0
100,0,1773659063695,0,0.001099,0.000000,-0.000122,23.193359,79.345703,-2.768339,92,0.000000,0
100,0,1773659063697,0,0.001465,-0.000122,-0.000244,101.318359,112.304688,144.042969,92,0.000000,0
100,0,1773659063740,0,0.001587,-0.000122,-0.000244,124.511719,117.187500,-3.599245,92,0.000000,0
100,0,1773659063742,0,0.001831,0.000000,-0.000488,175.781250,135.498047,156.250000,92,0.000000,0
100,0,1773659063744,0,0.001831,0.000122,-0.000732,230.712891,151.367188,-3.705772,92,0.000000,0
100,0,1773659063788,0,0.001831,0.000488,-0.001221,253.906250,166.015625,-3.790993,92,0.000000,0
100,0,1773659063790,0,0.001587,0.000000,-0.000244,155.029297,135.498047,-3.897519,92,0.000000,0
100,0,1773659063792,0,0.001465,-0.000244,-0.000122,161.132812,101.318359,-3.279666,92,0.000000,0
100,0,1773659063886,0,0.001343,0.000000,-0.000488,137.939453,144.042969,-2.278317,92,0.000000,0
100,0,1773659063888,0,0.000732,0.000000,-0.000610,101.318359,100.097656,54.931641,92,0.000000,0
100,0,1773659063889,0,0.000244,0.000244,-0.000854,78.125000,57.373047,-1.830906,92,0.000000,0
100,0,1773659063934,0,0.000732,-0.000854,0.000122,162.353516,80.566406,-1.980043,92,0.000000,0
100,0,1773659063937,0,0.000122,0.000122,-0.000122,-72.021484,-148.925781,-89.111328,92,0.000000,0
100,0,1773659063938,0,0.000244,0.000000,-0.000122,-72.021484,-166.015625,-102.539062,92,0.000000,0
100,0,1773659063983,0,0.000244,0.000244,-0.000122,-47.607422,-198.974609,1.343582,92,0.000000,0
100,0,1773659063985,0,0.000366,0.000366,-0.000122,-87.890625,-233.154297,1.790993,92,0.000000,0
100,0,1773659063987,0,0.000610,0.000244,-0.000122,-103.759766,-251.464844,2.004046,92,0.000000,0
100,0,1773659064032,0,0.000732,0.000244,0.000000,-114.746094,-269.775391,-197.753906,92,0.000000,0
100,0,1773659064035,0,0.000854,0.000244,0.000000,-131.835938,-284.423828,2.856257,92,0.000000,0
100,0,1773659064037,0,0.000854,0.000244,0.000000,-135.498047,-281.982422,3.090615,92,0.000000,0
100,0,1773659064080,0,0.000977,0.000000,0.000000,-124.511719,-278.320312,3.601943,92,0.000000,0
100,0,1773659064082,0,0.001221,0.000000,-0.000122,-97.656250,-283.203125,4.028048,92,0.000000,0
100,0,1773659064083,0,0.001343,0.000000,-0.000122,-85.449219,-289.306641,4.134574,92,0.000000,0
100,0,1773659064130,0,0.001587,0.000000,-0.000244,-58.593750,-302.734375,-306.396484,92,0.000000,0
100,0,1773659064130,0,0.001831,0.000000,-0.000122,-72.021484,-313.720703,4.326322,92,0.000000,0
100,0,1773659064132,0,0.001831,-0.000244,0.000000,-95.214844,-311.279297,4.219796,92,0.000000,0
100,0,1773659064178,0,0.001831,-0.000488,0.000000,-61.035156,-273.437500,-288.085938,92,0.000000,0
100,0,1773659064179,0,0.001831,-0.000244,0.000244,-111.083984,-216.064453,3.388889,92,0.000000,0
100,0,1773659064180,0,0.001831,-0.000488,0.000366,-141.601562,-174.560547,2.494067,92,0.000000,0
100,0,1773659064227,0,0.001709,-0.001343,0.000244,-166.015625,-103.759766,-153.808594,92,0.000000,0
100,0,1773659064228,0,0.001343,-0.001831,0.000488,-89.111328,-65.917969,-84.228516,92,0.000000,0
100,0,1773659064231,0,0.001221,-0.001831,0.000610,-21.972656,-46.386719,-0.382147,92,0.000000,0
100,0,1773659064276,0,0.001343,-0.001465,0.000732,70.800781,41.503906,1.086570,92,0.000000,0
100,0,1773659064277,0,0.001709,-0.000732,0.000000,86.669922,85.449219,114.746094,92,0.000000,0
100,0,1773659064281,0,0.001587,0.000488,0.000732,46.386719,144.042969,-3.215750,92,0.000000,0
100,0,1773659064325,0,0.000977,0.001831,-0.000610,117.187500,65.917969,-1.958738,92,0.000000,0
100,0,1773659064327,0,0.001709,-0.000488,0.000244,-240.478516,91.552734,178.222656,92,0.000000,0
100,0,1773659064328,0,0.001831,-0.001343,0.000000,-112.304688,70.800781,-4.387541,92,0.000000,0
100,0,1773659064373,0,0.001465,0.000122,-0.000122,47.607422,80.566406,192.871094,92,0.000000,0
100,0,1773659064377,0,0.000366,0.000366,-0.000732,-120.849609,34.179688,-4.621899,92,0.000000,0
100,0,1773659064377,0,0.000244,0.000000,-0.000732,-206.298828,0.000000,-4.920173,92,0.000000,0
100,0,1773659064422,0,0.001343,-0.000732,0.000000,-111.083984,58.593750,163.574219,92,0.000000,0
100,0,1773659064423,0,0.000854,-0.000122,-0.000244,40.283203,84.228516,-2.747034,92,0.000000,0
