sessionState,sensorTimeMicros,phoneTimeMs,sampleNumber,aX,aY,aZ,gX,gY,gZ,batteryCharge,batteryVoltage,rssi
0,0,1773659920720,0,0.001221,0.000000,0.000000,34.179688,0.000000,233.154297,85,0.000000,0
0,0,1773659920721,0,0.001221,0.000000,0.000000,40.283203,8.544922,218.505859,85,0.000000,0
0,0,1773659920722,0,0.001221,0.000000,0.000000,37.841797,9.765625,2.664510,85,0.000000,0
100,0,1773659920772,0,0.001221,0.000000,0.000000,36.621094,13.427734,2.366236,85,0.000000,0
100,0,1773659920772,0,0.001099,0.000000,0.000000,43.945312,15.869141,2.131877,85,0.000000,0
100,0,1773659920775,0,0.001099,0.000000,0.000000,48.828125,15.869141,1.918825,85,0.000000,0
100,0,1773659920818,0,0.000977,0.000122,0.000000,51.269531,15.869141,1.386192,85,0.000000,0
100,0,1773659920819,0,0.000977,0.000122,0.000000,45.166016,12.207031,104.980469,85,0.000000,0
100,0,1773659920819,0,0.000977,0.000122,0.000000,40.283203,10.986328,0.555286,85,0.000000,0
100,0,1773659920867,0,0.000854,0.000244,0.000000,30.517578,7.324219,51.269531,85,0.000000,0
100,0,1773659920868,0,0.000854,0.000244,0.000000,19.531250,4.882812,-0.637810,85,0.000000,0
100,0,1773659920869,0,0.000854,0.000244,-0.000122,13.427734,3.662109,-0.936084,85,0.000000,0
100,0,1773659920915,0,0.000854,0.000244,-0.000122,4.882812,-1.220703,-31.738281,85,0.000000,0
100,0,1773659920916,0,0.000854,0.000244,-0.000122,-7.324219,-10.986328,-65.917969,85,0.000000,0
100,0,1773659920917,0,0.000854,0.000366,-0.000122,-12.207031,-14.648438,-2.363539,85,0.000000,0
100,0,1773659920965,0,0.000854,0.000366,-0.000244,-20.751953,-21.972656,-107.421875,85,0.000000,0
100,0,1773659920965,0,0.000854,0.000366,-0.000244,-26.855469,-28.076172,-125.732422,85,0.000000,0
100,0,1773659920967,0,0.001221,-0.000366,0.000000,-73.242188,-19.531250,-2.810950,85,0.000000,0
100,0,1773659921062,0,0.000732,-0.001709,0.000244,-32.958984,-12.207031,-81.787109,85,0.000000,0
100,0,1773659921063,0,0.001099,-0.000244,0.000122,61.035156,-15.869141,-90.332031,85,0.000000,0
100,0,1773659921065,0,0.001221,-0.000122,0.000122,29.296875,-12.207031,-2.640507,85,0.000000,0
100,0,1773659921066,0,0.001465,-0.000122,0.000000,57.373047,-35.400391,-128.173828,85,0.000000,0
100,0,1773659921110,0,0.001099,0.000122,-0.000122,9.765625,-56.152344,-3.386192,85,0.000000,0
100,0,1773659921112,0,0.000977,0.000122,-0.000244,34.179688,-46.386719,-3.066613,85,0.000000,0
100,0,1773659921112,0,0.000977,0.000000,-0.000244,4.882812,-29.296875,-3.002697,85,0.000000,0
100,0,1773659921159,0,0.000854,0.000000,-0.000122,-6.103516,-14.648438,-2.768339,85,0.000000,0
100,0,1773659921159,0,0.000977,0.000000,0.000000,-9.765625,-8.544922,-2.555286,85,0.000000,0
100,0,1773659921160,0,0.000977,0.000000,0.000000,-6.103516,-9.765625,-2.427454,85,0.000000,0
100,0,1773659921208,0,0.000977,0.000000,0.000000,8.544922,-18.310547,-68.359375,85,0.000000,0
100,0,1773659921209,0,0.000854,0.000000,0.000000,20.751953,-28.076172,-61.035156,85,0.000000,0
100,0,1773659921210,0,0.000977,0.000000,0.000000,25.634766,-30.517578,-2.022654,85,0.000000,0
100,0,1773659921256,0,0.000977,0.000000,-0.000122,10.986328,-23.193359,-56.152344,85,0.000000,0
100,0,1773659921257,0,0.000977,0.000000,-0.000122,-20.751953,-10.986328,-1.937433,85,0.000000,0
100,0,1773659921258,0,0.000977,0.000000,-0.000122,-34.179688,-8.544922,-1.916127,85,0.000000,0
100,0,1773659921306,0,0.000854,-0.000122,0.000000,-21.972656,-13.427734,-53.710938,85,0.000000,0
100,0,1773659921307,0,0.000977,0.000000,0.000000,2.441406,-20.751953,-2.001348,85,0.000000,0
100,0,1773659921307,0,0.000977,0.000000,0.000000,3.662109,-21.972656,-2.022654,85,0.000000,0
100,0,1773659921354,0,0.000977,0.000000,-0.000122,-4.882812,-18.310547,-2.065264,85,0.000000,0
100,0,1773659921355,0,0.000977,0.000000,-0.000122,-9.765625,-12.207031,-64.697266,85,0.000000,0
100,0,1773659921356,0,0.000977,0.000000,0.000000,-6.103516,-4.882812,-2.193096,85,0.000000,0
100,0,1773659921402,0,0.000854,0.000000,-0.000122,-1.220703,-6.103516,-2.299623,85,0.000000,0
100,0,1773659921404,0,0.000977,0.000000,0.000000,7.324219,3.662109,-2.363539,85,0.000000,0
100,0,1773659921405,0,0.000977,0.000000,-0.000122,3.662109,7.324219,-2.384844,85,0.000000,0
100,0,1773659921453,0,0.000854,0.000000,-0.000122,8.544922,2.441406,-2.384844,85,0.000000,0
100,0,1773659921455,0,0.000977,0.000122,-0.000122,2.441406,-3.662109,-2.363539,85,0.000000,0
100,0,1773659921455,0,0.000977,0.000122,-0.000122,0.000000,-4.882812,-2.363539,85,0.000000,0
100,0,1773659921500,0,0.000977,0.000122,-0.000122,-10.986328,-6.103516,-2.342233,85,0.000000,0
100,0,1773659921501,0,0.000977,0.000122,-0.000122,-15.869141,-7.324219,-2.363539,85,0.000000,0
100,0,1773659921502,0,0.001099,0.000122,-0.000122,-17.089844,-8.544922,-2.363539,85,0.000000,0
100,0,1773659921549,0,0.001099,0.000122,0.000000,-25.634766,-8.544922,-2.448760,85,0.000000,0
100,0,1773659921550,0,0.001099,0.000000,0.000000,-18.310547,-9.765625,-2.576591,85,0.000000,0
100,0,1773659921551,0,0.001099,0.000000,0.000000,-14.648438,-10.986328,-2.661813,85,0.000000,0
100,0,1773659921598,0,0.001099,0.000122,0.000000,-23.193359,-10.986328,-2.896171,85,0.000000,0
100,0,1773659921599,0,0.001221,0.000122,0.000000,-31.738281,-8.544922,-3.087918,85,0.000000,0
100,0,1773659921599,0,0.001221,0.000122,0.000000,-37.841797,-8.544922,-3.215750,85,0.000000,0
100,0,1773659921649,0,0.001343,0.000000,0.000000,-52.490234,-7.324219,-135.498047,85,0.000000,0
100,0,1773659921649,0,0.001343,0.000000,0.000000,-79.345703,-2.441406,-141.601562,85,0.000000,0
100,0,1773659921650,0,0.001221,0.000000,0.000000,-91.552734,-2.441406,-3.514024,85,0.000000,0
100,0,1773659921695,0,0.001343,0.000000,0.000000,-114.746094,0.000000,-148.925781,85,0.000000,0
100,0,1773659921696,0,0.001343,-0.000366,0.000000,-129.394531,0.000000,-3.833603,85,0.000000,0
100,0,1773659921697,0,0.001343,-0.000610,-0.000122,-114.746094,-2.441406,-4.025351,85,0.000000,0
100,0,1773659921745,0,0.001343,-0.000610,-0.000366,-74.462891,-18.310547,-4.771036,85,0.000000,0
100,0,1773659921747,0,0.001465,-0.000122,-0.000488,-39.062500,-37.841797,-212.402344,85,0.000000,0
100,0,1773659921748,0,0.001587,0.000366,-0.000366,-21.972656,-41.503906,-220.947266,85,0.000000,0
100,0,1773659921792,0,0.001709,0.000122,-0.000366,-107.421875,-23.193359,-213.623047,85,0.000000,0
100,0,1773659921793,0,0.001709,-0.000122,-0.000366,-56.152344,-21.972656,-169.677734,85,0.000000,0
100,0,1773659921794,0,0.001343,-0.000244,-0.000244,-90.332031,-9.765625,-144.042969,85,0.000000,0
100,0,1773659921842,0,0.000732,-0.000366,0.000122,-68.359375,52.490234,-2.853560,85,0.000000,0
100,0,1773659921843,0,0.000732,0.000000,-0.000244,9.765625,-15.869141,-2.001348,85,0.000000,0
100,0,1773659921844,0,0.000610,0.000000,-0.000244,-19.531250,-10.986328,-1.596548,85,0.000000,0
100,0,1773659921890,0,0.000488,-0.000610,0.000000,-57.373047,-2.441406,-0.254315,85,0.000000,0
100,0,1773659921891,0,0.000244,-0.000610,0.000000,12.207031,0.000000,0.725728,85,0.000000,0
100,0,1773659921891,0,0.000366,-0.000366,0.000000,39.062500,0.000000,124.511719,85,0.000000,0
100,0,1773659921939,0,0.000488,0.000000,-0.000122,32.958984,-8.544922,2.089267,85,0.000000,0
100,0,1773659921940,0,0.000488,0.000000,-0.000122,9.765625,-24.414062,2.813647,85,0.000000,0
100,0,1773659921941,0,0.000610,0.000000,-0.000122,2.441406,-26.855469,3.133226,85,0.000000,0
100,0,1773659921987,0,0.000732,-0.000122,0.000000,8.544922,-23.193359,3.729774,85,0.000000,0
100,0,1773659921988,0,0.000854,0.000000,0.000000,25.634766,-21.972656,4.262406,85,0.000000,0
100,0,1773659921989,0,0.000977,0.000122,0.000000,47.607422,-29.296875,4.326322,85,0.000000,0
100,0,1773659922038,0,0.001099,0.000000,0.000000,9.765625,-3.662109,4.773733,85,0.000000,0
100,0,1773659922038,0,0.000977,-0.000122,0.000000,47.607422,-12.207031,5.008091,85,0.000000,0
100,0,1773659922040,0,0.001099,0.000000,0.000000,84.228516,-14.648438,5.157228,85,0.000000,0
100,0,1773659922085,0,0.001343,0.000000,0.000000,100.097656,-8.544922,5.476808,85,0.000000,0
100,0,1773659922086,0,0.001465,-0.000122,0.000000,136.718750,-3.662109,390.625000,85,0.000000,0
100,0,1773659922087,0,0.001587,0.000000,-0.000122,158.691406,0.000000,5.945524,85,0.000000,0
100,0,1773659922134,0,0.001831,0.000122,-0.000122,167.236328,10.986328,404.052734,85,0.000000,0
100,0,1773659922135,0,0.001831,0.000244,0.000000,148.925781,29.296875,396.728516,85,0.000000,0
100,0,1773659922136,0,0.001831,0.000244,0.000000,150.146484,36.621094,388.183594,85,0.000000,0
100,0,1773659922183,0,0.001831,0.000488,-0.000122,150.146484,47.607422,5.263755,85,0.000000,0
100,0,1773659922184,0,0.001831,0.000977,-0.000244,84.228516,62.255859,4.454154,85,0.000000,0
100,0,1773659922186,0,0.001587,0.000977,-0.000488,50.048828,62.255859,3.964132,85,0.000000,0
100,0,1773659922231,0,0.001099,0.001587,-0.000366,-40.283203,8.544922,2.664510,85,0.000000,0
100,0,1773659922233,0,0.000977,0.001343,-0.000122,-78.125000,14.648438,96.435547,85,0.000000,0
100,0,1773659922234,0,0.000854,0.001343,-0.000244,-59.814453,15.869141,41.503906,85,0.000000,0
100,0,1773659922280,0,0.000854,0.001343,-0.000244,-43.945312,15.869141,-2.406149,85,0.000000,0
100,0,1773659922281,0,0.000977,0.000977,-0.000122,-32.958984,0.000000,-3.769688,85,0.000000,0
100,0,1773659922282,0,0.000977,0.000854,-0.000122,-21.972656,-7.324219,-4.323625,85,0.000000,0
100,0,1773659922328,0,0.001343,-0.000244,-0.000244,-32.958984,-30.517578,-192.871094,85,0.000000,0
100,0,1773659922331,0,0.001709,-0.001831,0.000854,-174.560547,8.544922,-3.471413,85,0.000000,0
100,0,1773659922331,0,0.001831,-0.000977,0.000977,-31.738281,40.283203,-4.174488,85,0.000000,0
100,0,1773659922377,0,0.001831,0.000854,-0.000488,159.912109,-84.228516,-5.942827,85,0.000000,0
100,0,1773659922378,0,0.001221,0.000732,-0.000244,40.283203,-61.035156,-5.580637,85,0.000000,0
100,0,1773659922380,0,0.000244,0.000000,-0.000122,-18.310547,-81.787109,-5.111921,85,0.000000,0
100,0,1773659922427,0,0.000366,0.000244,0.000000,120.849609,-107.421875,-4.174488,85,0.000000,0
100,0,1773659922428,0,0.001099,0.000610,-0.000244,-43.945312,-31.738281,-3.151834,85,0.000000,0
100,0,1773659922429,0,0.001221,0.000122,0.000000,-78.125000,-8.544922,-3.066613,85,0.000000,0
100,0,1773659922475,0,0.000854,-0.000122,-0.000122,-31.738281,-13.427734,-2.448760,85,0.000000,0
100,0,1773659922476,0,0.000977,0.000000,-0.000122,-8.544922,-6.103516,-2.171791,85,0.000000,0
100,0,1773659922476,0,0.001099,0.000122,-0.000122,-23.193359,6.103516,-2.022654,85,0.000000,0
100,0,1773659922523,0,0.000854,0.000000,0.000000,-29.296875,-6.103516,-1.766990,85,0.000000,0
100,0,1773659922525,0,0.000977,0.000000,-0.000122,-10.986328,-4.882812,-36.621094,85,0.000000,0
100,0,1773659922525,0,0.000854,0.000000,-0.000122,-9.765625,-6.103516,-1.617853,85,0.000000,0
100,0,1773659922572,0,0.000977,0.000000,-0.000122,-15.869141,0.000000,-1.575243,85,0.000000,0
100,0,1773659922573,0,0.000854,0.000000,-0.000122,-29.296875,0.000000,-1.596548,85,0.000000,0
100,0,1773659922575,0,0.000854,0.000000,-0.000122,-24.414062,1.220703,-1.617853,85,0.000000,0
100,0,1773659922621,0,0.000854,0.000000,0.000000,-19.531250,-2.441406,-1.681769,85,0.000000,0
100,0,1773659922623,0,0.000977,0.000000,0.000000,-7.324219,-2.441406,-1.788296,85,0.000000,0
100,0,1773659922624,0,0.000977,0.000000,0.000000,-6.103516,0.000000,-1.852211,85,0.000000,0
100,0,1773659922671,0,0.000854,0.000000,-0.000122,-12.207031,-2.441406,-2.001348,85,0.000000,0
100,0,1773659922672,0,0.000977,0.000000,0.000000,-9.765625,0.000000,-2.086570,85,0.000000,0
100,0,1773659922673,0,0.000977,0.000000,0.000000,-3.662109,6.103516,-2.193096,85,0.000000,0
100,0,1773659922767,0,0.000854,0.000000,-0.000122,7.324219,12.207031,-72.021484,85,0.000000,0
100,0,1773659922769,0,0.000977,0.000000,-0.000122,1.220703,7.324219,-2.278317,85,0.000000,0
100,0,1773659922769,0,0.000977,0.000000,-0.000122,-6.103516,8.544922,-2.299623,85,0.000000,0
100,0,1773659922866,0,0.000977,0.000000,-0.000122,-9.765625,7.324219,-2.363539,85,0.000000,0
100,0,1773659922866,0,0.001099,0.000000,-0.000122,-6.103516,-2.441406,-2.810950,85,0.000000,0
100,0,1773659922868,0,0.001099,0.000122,-0.000122,-9.765625,-1.220703,-2.917476,85,0.000000,0
100,0,1773659922868,0,0.001221,0.000000,-0.000122,-19.531250,-1.220703,-3.151834,85,0.000000,0
100,0,1773659922914,0,0.001221,0.000000,0.000000,-25.634766,-2.441406,-145.263672,85,0.000000,0
100,0,1773659922915,0,0.001343,0.000000,0.000000,-54.931641,0.000000,-3.982740,85,0.000000,0
100,0,1773659922916,0,0.001343,0.000000,0.000000,-70.800781,1.220703,-172.119141,85,0.000000,0
100,0,1773659922963,0,0.001343,0.000000,0.000000,-114.746094,0.000000,-4.110572,85,0.000000,0
100,0,1773659922964,0,0.001465,-0.000366,0.000000,-131.835938,1.220703,-184.326172,85,0.000000,0
100,0,1773659922965,0,0.001587,-0.000610,-0.000122,-131.835938,1.220703,-4.323625,85,0.000000,0
100,0,1773659923012,0,0.001465,-0.000732,-0.000366,-90.332031,-12.207031,-4.621899,85,0.000000,0
100,0,1773659923013,0,0.001465,-0.000244,-0.000610,-52.490234,-34.179688,-4.834952,85,0.000000,0
100,0,1773659923014,0,0.001465,0.000244,-0.000732,-37.841797,-45.166016,-4.898868,85,0.000000,0
100,0,1773659923060,0,0.001709,0.000488,-0.000366,-135.498047,-21.972656,-4.643205,85,0.000000,0
100,0,1773659923061,0,0.001831,-0.000122,-0.000366,-145.263672,-13.427734,-3.897519,85,0.000000,0
100,0,1773659923061,0,0.001587,-0.000366,-0.000366,-152.587891,8.544922,-3.343582,85,0.000000,0
100,0,1773659923109,0,0.000610,-0.000977,0.000122,-167.236328,61.035156,-2.257012,85,0.000000,0
100,0,1773659923110,0,0.000610,0.000122,-0.000366,41.503906,-17.089844,-2.235707,85,0.000000,0
100,0,1773659923111,0,0.000854,0.000122,-0.000244,62.255859,-2.441406,-1.788296,85,0.000000,0
100,0,1773659923207,0,0.000366,-0.000366,0.000000,41.503906,-15.869141,-0.659115,85,0.000000,0
100,0,1773659923207,0,0.000122,-0.000732,-0.000122,76.904297,7.324219,0.597897,85,0.000000,0
100,0,1773659923209,0,0.000244,-0.000488,-0.000122,114.746094,-3.662109,1.087918,85,0.000000,0
100,0,1773659923209,0,0.000366,0.000000,-0.000366,120.849609,-10.986328,2.089267,85,0.000000,0
100,0,1773659923255,0,0.000610,0.000122,-0.000244,46.386719,-25.634766,3.175837,85,0.000000,0
100,0,1773659923257,0,0.000732,-0.000122,0.000000,13.427734,-24.414062,4.368933,85,0.000000,0
100,0,1773659923258,0,0.000732,0.000000,0.000000,15.869141,-19.531250,4.603291,85,0.000000,0
100,0,1773659923304,0,0.000854,0.000000,0.000122,32.958984,-9.765625,5.008091,86,0.000000,0
100,0,1773659923305,0,0.000977,0.000000,0.000000,52.490234,-7.324219,375.976562,86,0.000000,0
100,0,1773659923305,0,0.000977,0.000000,0.000000,61.035156,-8.544922,6.201188,86,0.000000,0
100,0,1773659923354,0,0.001221,-0.000244,0.000000,96.435547,-14.648438,422.363281,86,0.000000,0
100,0,1773659923355,0,0.001587,-0.000244,-0.000122,157.470703,-15.869141,446.777344,86,0.000000,0
100,0,1773659923355,0,0.001831,-0.000122,-0.000244,180.664062,-13.427734,6.946873,86,0.000000,0
100,0,1773659923401,0,0.001831,0.000244,-0.000122,184.326172,6.103516,6.989483,86,0.000000,0
100,0,1773659923403,0,0.001831,0.000366,-0.000122,157.470703,28.076172,6.691209,86,0.000000,0
100,0,1773659923404,0,0.001831,0.000366,-0.000244,151.367188,36.621094,6.478157,86,0.000000,0
100,0,1773659923450,0,0.001831,0.001099,-0.000488,51.269531,65.917969,379.638672,86,0.000000,0
100,0,1773659923451,0,0.001099,0.001221,-0.000854,-13.427734,7.324219,4.155880,86,0.000000,0
100,0,1773659923452,0,0.000977,0.001831,-0.000610,-68.359375,-7.324219,3.175837,86,0.000000,0
100,0,1773659923500,0,0.000854,0.001831,0.000000,-129.394531,-13.427734,0.874865,86,0.000000,0
100,0,1773659923500,0,0.000977,0.001465,-0.000244,-96.435547,4.882812,-1.553937,86,0.000000,0
100,0,1773659923502,0,0.000977,0.001465,-0.000244,-87.890625,8.544922,-93.994141,86,0.000000,0
100,0,1773659923548,0,0.000977,0.000977,-0.000244,-76.904297,-8.544922,-4.430151,86,0.000000,0
100,0,1773659923549,0,0.001709,0.000000,-0.000244,-96.435547,-35.400391,-207.519531,86,0.000000,0
100,0,1773659923600,0,0.001465,-0.001343,0.001099,-76.904297,13.427734,-4.834952,86,0.000000,0
100,0,1773659923601,0,0.001709,-0.001831,0.001221,148.925781,23.193359,-4.174488,86,0.000000,0
100,0,1773659923602,0,0.001831,0.000366,0.000000,305.175781,-40.283203,-4.877563,86,0.000000,0
100,0,1773659923646,0,0.001831,0.001709,-0.000977,177.001953,-104.980469,-5.601943,86,0.000000,0
100,0,1773659923647,0,-0.000122,-0.001099,-0.000488,93.994141,-122.070312,-203.857422,86,0.000000,0
100,0,1773659923651,0,0.000488,0.000244,-0.000244,168.457031,-90.332031,-4.067962,86,0.000000,0
100,0,1773659923696,0,0.001099,0.001343,-0.000244,-40.283203,-14.648438,-3.556635,86,0.000000,0
100,0,1773659923697,0,0.001099,-0.000244,0.000000,-128.173828,14.648438,-3.087918,86,0.000000,0
100,0,1773659923699,0,0.000977,-0.000244,0.000000,-70.800781,13.427734,-2.810950,86,0.000000,0
100,0,1773659923746,0,0.000854,0.000000,-0.000122,4.882812,-3.662109,-2.406149,86,0.000000,0
100,0,1773659923747,0,0.000977,0.000000,0.000000,26.855469,-13.427734,-2.193096,86,0.000000,0
100,0,1773659923749,0,0.000977,0.000000,0.000000,29.296875,-17.089844,-2.065264,86,0.000000,0
100,0,1773659923792,0,0.000977,0.000000,-0.000122,17.089844,-20.751953,-51.269531,86,0.000000,0
100,0,1773659923792,0,0.000977,0.000122,-0.000366,-36.621094,-9.765625,-45.166016,86,0.000000,0
100,0,1773659923793,0,0.000854,0.000000,-0.000244,-56.152344,-7.324219,-42.724609,86,0.000000,0
100,0,1773659923841,0,0.000854,0.000000,0.000000,-51.269531,-10.986328,-42.724609,86,0.000000,0
100,0,1773659923842,0,0.000977,-0.000122,0.000000,-21.972656,-17.089844,-1.788296,86,0.000000,0
100,0,1773659923846,0,0.000977,0.000000,0.000000,-9.765625,-17.089844,-1.788296,86,0.000000,0
100,0,1773659923890,0,0.000977,0.000122,-0.000244,-29.296875,-8.544922,-43.945312,86,0.000000,0
100,0,1773659923890,0,0.000977,0.000000,-0.000122,-47.607422,1.220703,-1.809601,86,0.000000,0
100,0,1773659923891,0,0.000854,0.000000,-0.000122,-42.724609,2.441406,-47.607422,86,0.000000,0
100,0,1773659923941,0,0.000977,0.000000,-0.000122,-37.841797,1.220703,-52.490234,86,0.000000,0
100,0,1773659923941,0,0.000977,0.000000,-0.000122,-12.207031,14.648438,-2.107875,86,0.000000,0
100,0,1773659923942,0,0.000854,0.000000,-0.000122,-10.986328,9.765625,-2.150486,86,0.000000,0
100,0,1773659923988,0,0.000977,0.000000,-0.000122,-19.531250,2.441406,-68.359375,86,0.000000,0
100,0,1773659923990,0,0.000977,0.000000,-0.000122,-14.648438,0.000000,-2.257012,86,0.000000,0
100,0,1773659923991,0,0.000977,0.000000,-0.000122,-8.544922,-1.220703,-2.320928,86,0.000000,0
100,0,1773659924037,0,0.001099,0.000000,-0.000122,-6.103516,-3.662109,-2.512676,86,0.000000,0
100,0,1773659924037,0,0.001099,0.000000,-0.000122,-12.207031,-4.882812,-2.747034,86,0.000000,0
100,0,1773659924039,0,0.001221,0.000000,-0.000122,-14.648438,-4.882812,-2.896171,86,0.000000,0
100,0,1773659924088,0,0.001221,0.000000,0.000000,-20.751953,-6.103516,-125.732422,86,0.000000,0
100,0,1773659924090,0,0.001221,0.000000,0.000000,-23.193359,-8.544922,-145.263672,86,0.000000,0
100,0,1773659924092,0,0.001221,0.000000,0.000000,-29.296875,-9.765625,-3.684466,86,0.000000,0
100,0,1773659924138,0,0.001343,0.000000,0.000000,-40.283203,-8.544922,-3.961435,86,0.000000,0
100,0,1773659924138,0,0.001343,0.000000,0.000000,-67.138672,-7.324219,-4.110572,86,0.000000,0
100,0,1773659924139,0,0.001343,0.000000,0.000000,-89.111328,-8.544922,-4.217099,86,0.000000,0
100,0,1773659924184,0,0.001587,-0.000122,-0.000122,-124.511719,-10.986328,-4.408846,86,0.000000,0
100,0,1773659924185,0,0.001709,-0.000610,-0.000244,-174.560547,-14.648438,-4.494067,86,0.000000,0
100,0,1773659924187,0,0.001587,-0.000732,-0.000244,-172.119141,-19.531250,-4.557983,86,0.000000,0
100,0,1773659924231,0,0.001465,-0.000732,-0.000488,-103.759766,-31.738281,-4.771036,86,0.000000,0
100,0,1773659924232,0,0.001465,0.000244,-0.000488,-25.634766,-42.724609,-5.090615,86,0.000000,0
100,0,1773659924235,0,0.001709,0.000610,-0.000366,-34.179688,-32.958984,-227.050781,86,0.000000,0
100,0,1773659924281,0,0.001709,0.000000,-0.000488,-83.007812,-41.503906,-4.408846,86,0.000000,0
100,0,1773659924282,0,0.001465,-0.000366,-0.000244,-90.332031,-6.103516,-3.386192,86,0.000000,0
100,0,1773659924283,0,0.001099,-0.000732,-0.000244,-136.718750,-3.662109,-2.640507,86,0.000000,0
100,0,1773659924330,0,0.000488,0.000000,0.000366,-30.517578,73.242188,-69.580078,86,0.000000,0
100,0,1773659924330,0,0.000488,0.000366,-0.000122,-39.062500,-21.972656,-6.103516,86,0.000000,0
100,0,1773659924331,0,0.000488,0.000000,-0.000366,-75.683594,-1.220703,25.634766,86,0.000000,0
100,0,1773659924380,0,0.000122,-0.000610,0.000000,-133.056641,-48.828125,95.214844,86,0.000000,0
100,0,1773659924381,0,0.000244,-0.000610,0.000000,1.220703,-19.531250,163.574219,86,0.000000,0
100,0,1773659924381,0,0.000366,-0.000244,0.000000,36.621094,-24.414062,2.259709,86,0.000000,0
100,0,1773659924426,0,0.000488,0.000000,-0.000122,28.076172,-28.076172,3.048005,86,0.000000,0
100,0,1773659924428,0,0.000488,0.000000,-0.000122,13.427734,-42.724609,3.665858,86,0.000000,0
100,0,1773659924430,0,0.000488,-0.000122,-0.000122,13.427734,-47.607422,4.006743,86,0.000000,0
100,0,1773659924476,0,0.000854,-0.000244,0.000122,45.166016,-43.945312,4.667207,86,0.000000,0
100,0,1773659924477,0,0.000854,-0.000122,0.000000,78.125000,-41.503906,5.114618,86,0.000000,0
100,0,1773659924478,0,0.000854,-0.000122,0.000000,100.097656,-41.503906,364.990234,86,0.000000,0
100,0,1773659924526,0,0.001099,0.000000,0.000000,112.304688,-31.738281,5.860303,86,0.000000,0
100,0,1773659924528,0,0.001343,0.000000,0.000000,120.849609,-13.427734,6.329020,86,0.000000,0
100,0,1773659924529,0,0.001465,0.000000,0.000000,128.173828,-4.882812,6.542072,86,0.000000,0
100,0,1773659924573,0,0.001831,0.000000,-0.000122,137.939453,9.765625,460.205078,86,0.000000,0
100,0,1773659924576,0,0.001831,0.000000,-0.000122,145.263672,23.193359,7.245147,86,0.000000,0
100,0,1773659924576,0,0.001831,0.000122,-0.000244,136.718750,32.958984,7.223842,86,0.000000,0
100,0,1773659924669,0,0.001831,0.000488,-0.000366,119.628906,40.283203,6.797736,86,0.000000,0
100,0,1773659924672,0,0.001831,0.000977,-0.000244,70.800781,52.490234,399.169922,86,0.000000,0
100,0,1773659924673,0,0.001831,0.001221,-0.000366,24.414062,51.269531,354.003906,86,0.000000,0
100,0,1773659924721,0,0.001221,0.001831,-0.000488,-75.683594,8.544922,3.154531,86,0.000000,0
100,0,1773659924722,0,0.001099,0.000977,-0.000244,-65.917969,-14.648438,-213.623047,86,0.000000,0
100,0,1773659924723,0,0.001343,0.000610,-0.000610,-95.214844,-45.166016,-223.388672,86,0.000000,0
100,0,1773659924769,0,0.001221,-0.001831,0.000000,-97.656250,-8.544922,-166.015625,86,0.000000,0
100,0,1773659924770,0,0.001587,-0.000977,0.000854,162.353516,18.310547,-174.560547,86,0.000000,0
100,0,1773659924771,0,0.001831,0.000000,0.000244,217.285156,-3.662109,-198.974609,86,0.000000,0
100,0,1773659924816,0,0.001831,0.001465,-0.000732,150.146484,-91.552734,-5.154531,86,0.000000,0
100,0,1773659924818,0,0.001221,0.000610,0.000000,14.648438,-90.332031,-5.133226,86,0.000000,0
100,0,1773659924820,0,0.000244,-0.000610,-0.000244,4.882812,-109.863281,-4.451457,86,0.000000,0
100,0,1773659924868,0,0.000610,0.000610,-0.000366,134.277344,-80.566406,-3.705772,86,0.000000,0
100,0,1773659924870,0,0.001221,0.001343,-0.000122,-107.421875,-8.544922,-131.835938,86,0.000000,0
100,0,1773659924870,0,0.001099,0.000244,-0.000244,-175.781250,-8.544922,-3.087918,86,0.000000,0
100,0,1773659924917,0,0.000854,-0.000488,0.000000,-92.773438,-8.544922,-2.406149,86,0.000000,0
100,0,1773659924918,0,0.000977,0.000000,-0.000122,-18.310547,-15.869141,-2.171791,86,0.000000,0
100,0,1773659924919,0,0.000977,0.000000,0.000000,-4.882812,-18.310547,-2.086570,86,0.000000,0
100,0,1773659925012,0,0.000977,0.000000,-0.000122,7.324219,-18.310547,-52.490234,86,0.000000,0
100,0,1773659925015,0,0.000977,0.000000,-0.000366,-24.414062,-12.207031,-43.945312,86,0.000000,0
100,0,1773659925015,0,0.000977,0.000000,-0.000366,-51.269531,-1.220703,-1.703074,86,0.000000,0
100,0,1773659925016,0,0.000854,-0.000122,-0.000122,-53.710938,0.000000,-1.617853,86,0.000000,0
100,0,1773659925061,0,0.000854,-0.000122,0.000000,-10.986328,-6.103516,-1.660464,86,0.000000,0
100,0,1773659925062,0,0.000854,0.000000,-0.000244,-23.193359,-1.220703,-1.724380,86,0.000000,0
100,0,1773659925062,0,0.000854,0.000000,-0.000244,-21.972656,-2.441406,-2.129180,86,0.000000,0
100,0,1773659925110,0,0.000854,0.000000,-0.000244,-20.751953,-3.662109,-1.873517,86,0.000000,0
100,0,1773659925111,0,0.000977,0.000000,-0.000122,-17.089844,-19.531250,-58.593750,86,0.000000,0
100,0,1773659925112,0,0.000977,0.000000,-0.000122,-13.427734,-2.441406,-2.065264,86,0.000000,0
100,0,1773659925160,0,0.000977,0.000000,-0.000122,-3.662109,-2.441406,-2.214401,86,0.000000,0
100,0,1773659925160,0,0.000977,0.000000,0.000000,-2.441406,-1.220703,-2.299623,86,0.000000,0
100,0,1773659925161,0,0.000977,0.000000,0.000000,0.000000,3.662109,-2.384844,86,0.000000,0
100,0,1773659925209,0,0.000977,0.000000,-0.000122,2.441406,2.441406,-87.890625,86,0.000000,0
100,0,1773659925211,0,0.000977,0.000000,-0.000122,3.662109,-1.220703,-2.725729,86,0.000000,0
100,0,1773659925213,0,0.000977,0.000000,-0.000122,1.220703,-6.103516,-103.759766,86,0.000000,0
100,0,1773659925255,0,0.001099,0.000000,-0.000244,-1.220703,-10.986328,-113.525391,86,0.000000,0
100,0,1773659925256,0,0.001099,0.000000,-0.000122,-7.324219,-12.207031,-124.511719,86,0.000000,0
100,0,1773659925257,0,0.001221,0.000000,-0.000122,-9.765625,-12.207031,-3.279666,86,0.000000,0
100,0,1773659925303,0,0.001099,0.000000,0.000000,-15.869141,-18.310547,-3.599245,86,0.000000,0
100,0,1773659925308,0,0.001221,0.000000,0.000000,-21.972656,-18.310547,-3.918825,86,0.000000,0
100,0,1773659925309,0,0.001221,0.000000,-0.000122,-26.855469,-19.531250,-4.067962,86,0.000000,0
100,0,1773659925352,0,0.001343,0.000000,-0.000244,-61.035156,-25.634766,-4.366236,86,0.000000,0
100,0,1773659925355,0,0.001465,0.000000,-0.000122,-137.939453,-32.958984,-202.636719,86,0.000000,0
100,0,1773659925356,0,0.001587,-0.000122,-0.000122,-167.236328,-36.621094,-4.621899,86,0.000000,0
100,0,1773659925404,0,0.001831,-0.000366,-0.000122,-206.298828,-43.945312,-4.707120,86,0.000000,0
100,0,1773659925406,0,0.001709,-0.000854,-0.000366,-214.843750,-46.386719,-4.749731,86,0.000000,0
100,0,1773659925406,0,0.001465,-0.000854,-0.000488,-164.794922,-59.814453,-4.877563,86,0.000000,0
100,0,1773659925450,0,0.001587,0.000122,-0.000366,-52.490234,-65.917969,-235.595703,86,0.000000,0
100,0,1773659925451,0,0.001709,0.000366,-0.000610,-72.021484,-50.048828,-192.871094,86,0.000000,0
100,0,1773659925452,0,0.001587,0.000244,-0.000366,-85.449219,-54.931641,-173.339844,86,0.000000,0
100,0,1773659925498,0,0.001221,-0.000122,-0.000488,-137.939453,-50.048828,-3.002697,86,0.000000,0
100,0,1773659925501,0,0.000732,-0.000610,0.000488,-197.753906,18.310547,-1.703074,86,0.000000,0
100,0,1773659925503,0,0.000244,0.000000,0.000000,-126.953125,50.048828,-1.958738,86,0.000000,0
100,0,1773659925548,0,0.000000,0.000122,-0.000122,-128.173828,-87.890625,-0.339536,86,0.000000,0
100,0,1773659925550,0,0.000122,-0.000854,0.000000,-177.001953,-87.890625,112.304688,86,0.000000,0
100,0,1773659925551,0,0.000244,-0.001099,0.000000,-135.498047,-75.683594,1.364887,86,0.000000,0
100,0,1773659925596,0,0.000244,-0.000488,0.000122,12.207031,-80.566406,2.153183,86,0.000000,0
100,0,1773659925598,0,0.000488,0.000122,0.000000,14.648438,-85.449219,2.941478,86,0.000000,0
100,0,1773659925599,0,0.000366,0.000000,0.000000,-8.544922,-91.552734,3.346279,86,0.000000,0
100,0,1773659925645,0,0.000610,-0.000244,0.000000,-24.414062,-109.863281,4.155880,86,0.000000,0
100,0,1773659925647,0,0.000854,-0.000244,0.000122,9.765625,-119.628906,4.773733,86,0.000000,0
100,0,1773659925648,0,0.000977,-0.000122,0.000244,20.751953,-118.408203,5.072007,86,0.000000,0
100,0,1773659925694,0,0.001099,0.000000,0.000366,26.855469,-107.421875,377.197266,86,0.000000,0
100,0,1773659925743,0,0.001221,-0.000122,0.000488,28.076172,-89.111328,6.030746,86,0.000000,0
100,0,1773659925743,0,0.001343,0.000000,0.000366,35.400391,-79.345703,6.222493,86,0.000000,0
100,0,1773659925746,0,0.001465,0.000000,0.000366,40.283203,-53.710938,6.605988,86,0.000000,0
100,0,1773659925747,0,0.001709,0.000000,0.000366,35.400391,-30.517578,7.010789,86,0.000000,0
100,0,1773659925790,0,0.001831,0.000000,0.000244,48.828125,-1.220703,472.412109,86,0.000000,0
100,0,1773659925792,0,0.001831,0.000366,0.000000,92.773438,41.503906,6.946873,86,0.000000,0
100,0,1773659925792,0,0.001831,0.000732,0.000000,73.242188,59.814453,6.542072,86,0.000000,0
100,0,1773659925840,0,0.001831,0.000977,0.000000,14.648438,89.111328,355.224609,86,0.000000,0
100,0,1773659925841,0,0.001343,0.001343,-0.000366,-14.648438,83.007812,258.789062,86,0.000000,0
100,0,1773659925842,0,0.000732,0.001709,-0.000732,-53.710938,56.152344,200.195312,86,0.000000,0
100,0,1773659925889,0,0.000732,0.001831,-0.000122,-201.416016,35.400391,0.150486,86,0.000000,0
100,0,1773659925891,0,0.000854,0.001099,-0.000244,-184.326172,34.179688,-65.917969,86,0.000000,0
100,0,1773659925892,0,0.000977,0.001099,-0.000366,-161.132812,32.958984,-119.628906,86,0.000000,0
100,0,1773659925939,0,0.001099,0.000732,-0.000244,-152.587891,25.634766,-194.091797,86,0.000000,0
100,0,1773659925941,0,0.001221,-0.001709,-0.000244,-224.609375,-1.220703,-3.727077,86,0.000000,0
100,0,1773659925941,0,0.000977,-0.001831,0.000000,-161.132812,-4.882812,-3.641856,86,0.000000,0
100,0,1773659925986,0,0.001831,-0.000732,0.000488,170.898438,34.179688,-3.748382,86,0.000000,0
100,0,1773659925988,0,0.001831,0.000488,-0.000488,209.960938,-57.373047,-5.154531,86,0.000000,0
100,0,1773659925989,0,0.001831,0.001099,-0.000366,218.505859,-61.035156,-5.431500,86,0.000000,0
100,0,1773659926035,0,0.000488,0.000122,-0.000122,70.800781,-80.566406,-4.856257,86,0.000000,0
100,0,1773659926037,0,0.000366,0.000000,-0.000244,118.408203,-74.462891,-3.833603,86,0.000000,0
100,0,1773659926037,0,0.001099,0.000977,-0.000366,98.876953,-43.945312,-3.364887,86,0.000000,0
100,0,1773659926085,0,0.000977,0.000488,-0.000366,-124.511719,-21.972656,-2.960087,86,0.000000,0
100,0,1773659926086,0,0.000977,-0.000122,-0.000122,-83.007812,-2.441406,-79.345703,86,0.000000,0
100,0,1773659926086,0,0.000854,-0.000122,-0.000244,-72.021484,-7.324219,-2.150486,86,0.000000,0
100,0,1773659926135,0,0.000854,-0.000122,-0.000122,-31.738281,-13.427734,-1.916127,86,0.000000,0
100,0,1773659926137,0,0.000854,0.000000,-0.000122,-8.544922,-18.310547,-1.724380,86,0.000000,0
100,0,1773659926139,0,0.000854,0.000000,-0.000122,-9.765625,-18.310547,-39.062500,86,0.000000,0
100,0,1773659926181,0,0.000854,0.000000,-0.000244,-10.986328,-14.648438,-1.596548,86,0.000000,0
100,0,1773659926185,0,0.000854,0.000000,-0.000366,-28.076172,-8.544922,-28.076172,86,0.000000,0
100,0,1773659926185,0,0.000854,0.000000,-0.000366,-40.283203,-4.882812,-1.447411,86,0.000000,0
100,0,1773659926231,0,0.000854,-0.000122,-0.000122,-37.841797,-6.103516,-24.414062,86,0.000000,0
100,0,1773659926232,0,0.000854,-0.000122,-0.000122,-14.648438,-14.648438,-1.490022,86,0.000000,0
100,0,1773659926233,0,0.000854,-0.000122,-0.000122,-3.662109,-17.089844,-1.511327,86,0.000000,0
100,0,1773659926280,0,0.000854,0.000000,-0.000366,-19.531250,-12.207031,-1.532632,86,0.000000,0
100,0,1773659926281,0,0.000854,0.000000,-0.000244,-31.738281,-10.986328,-1.553937,86,0.000000,0
100,0,1773659926282,0,0.000854,0.000000,-0.000244,-26.855469,-9.765625,-1.575243,86,0.000000,0
100,0,1773659926328,0,0.000854,0.000000,-0.000244,-17.089844,-13.427734,-1.617853,86,0.000000,0
100,0,1773659926329,0,0.000854,0.000000,-0.000244,-14.648438,-14.648438,-37.841797,86,0.000000,0
100,0,1773659926330,0,0.000854,0.000000,-0.000244,-17.089844,-15.869141,-1.681769,86,0.000000,0
100,0,1773659926378,0,0.000854,0.000000,-0.000244,-20.751953,-17.089844,-1.703074,86,0.000000,0
100,0,1773659926378,0,0.000977,0.000000,-0.000244,-26.855469,-19.531250,-1.703074,86,0.000000,0
100,0,1773659926380,0,0.000977,0.000000,-0.000244,-30.517578,-19.531250,-1.724380,86,0.000000,0
100,0,1773659926476,0,0.000977,0.000000,-0.000122,-36.621094,-17.089844,-1.809601,86,0.000000,0
100,0,1773659926478,0,0.000854,0.000000,-0.000244,-32.958984,-8.544922,-52.490234,86,0.000000,0
100,0,1773659926480,0,0.000977,0.000000,-0.000244,-29.296875,-9.765625,-56.152344,86,0.000000,0
100,0,1773659926481,0,0.000854,0.000000,-0.000244,-28.076172,-6.103516,-2.171791,86,0.000000,0
100,0,1773659926526,0,0.000854,0.000000,-0.000366,-29.296875,-24.414062,-83.007812,86,0.000000,0
100,0,1773659926527,0,0.001099,0.000000,-0.000366,-59.814453,-41.503906,-2.789644,86,0.000000,0
100,0,1773659926528,0,0.001099,0.000122,-0.000244,-69.580078,-46.386719,-2.874866,86,0.000000,0
100,0,1773659926573,0,0.001221,0.000122,-0.000244,-98.876953,-51.269531,-3.066613,86,0.000000,0
100,0,1773659926573,0,0.001221,0.000122,-0.000244,-126.953125,-57.373047,-3.215750,86,0.000000,0
100,0,1773659926573,0,0.001221,0.000122,-0.000244,-148.925781,-61.035156,-3.258361,86,0.000000,0
100,0,1773659926620,0,0.001343,0.000122,-0.000244,-203.857422,-65.917969,-137.939453,86,0.000000,0
100,0,1773659926621,0,0.001465,0.000000,-0.000366,-294.189453,-79.345703,-3.492719,86,0.000000,0
100,0,1773659926623,0,0.001587,-0.000122,-0.000366,-335.693359,-86.669922,-3.492719,86,0.000000,0
100,0,1773659926671,0,0.001709,-0.000610,-0.000488,-388.183594,-93.994141,-141.601562,86,0.000000,0
100,0,1773659926672,0,0.001587,-0.000854,-0.000732,-340.576172,-108.642578,-152.587891,86,0.000000,0
100,0,1773659926673,0,0.001343,-0.000366,-0.000610,-281.982422,-119.628906,-3.918825,86,0.000000,0
100,0,1773659926720,0,0.001465,0.000488,-0.000366,-229.492188,-112.304688,-3.876214,86,0.000000,0
100,0,1773659926723,0,0.001465,0.000488,-0.000244,-263.671875,-106.201172,-3.471413,86,0.000000,0
100,0,1773659926723,0,0.001343,0.000488,-0.000488,-290.527344,-100.097656,-3.173139,86,0.000000,0
100,0,1773659926765,0,0.000854,-0.000366,0.000000,-366.210938,-101.318359,-2.001348,86,0.000000,0
100,0,1773659926766,0,0.000000,0.000000,-0.000610,-238.037109,-100.097656,-1.617853,86,0.000000,0
100,0,1773659926767,0,0.000000,-0.000122,-0.000244,-214.843750,-173.339844,-12.207031,86,0.000000,0
100,0,1773659926816,0,0.000488,-0.000854,0.000000,-227.050781,-148.925781,63.476562,86,0.000000,0
100,0,1773659926817,0,0.000488,-0.001221,0.000244,-147.705078,-144.042969,0.874865,86,0.000000,0
100,0,1773659926818,0,0.000610,-0.000977,0.000488,-84.228516,-136.718750,1.343582,86,0.000000,0
100,0,1773659926865,0,0.000610,-0.000244,0.000366,1.220703,-147.705078,1.897519,86,0.000000,0
100,0,1773659926866,0,0.000732,0.000000,0.000366,8.544922,-137.939453,2.664510,86,0.000000,0
100,0,1773659926867,0,0.000732,-0.000122,0.000366,14.648438,-140.380859,3.026700,86,0.000000,0
100,0,1773659926912,0,0.000854,-0.000366,0.000366,43.945312,-136.718750,3.878911,86,0.000000,0
100,0,1773659926913,0,0.001099,-0.000122,0.000366,56.152344,-113.525391,4.581985,86,0.000000,0
100,0,1773659926914,0,0.001099,0.000000,0.000366,41.503906,-100.097656,4.880260,86,0.000000,0
100,0,1773659926962,0,0.001221,0.000000,0.000488,-4.882812,-80.566406,368.652344,86,0.000000,0
100,0,1773659926963,0,0.001343,0.000000,0.000488,-17.089844,-59.814453,5.817692,86,0.000000,0
100,0,1773659926965,0,0.001343,0.000000,0.000488,-19.531250,-46.386719,405.273438,86,0.000000,0
100,0,1773659927011,0,0.001465,0.000000,0.000488,-30.517578,-23.193359,427.246094,86,0.000000,0
100,0,1773659927012,0,0.001587,0.000000,0.000366,-39.062500,-4.882812,6.797736,86,0.000000,0
100,0,1773659927013,0,0.001831,0.000000,0.000366,-45.166016,2.441406,6.925568,86,0.000000,0
100,0,1773659927060,0,0.001831,-0.000122,0.000244,-23.193359,24.414062,461.425781,86,0.000000,0
100,0,1773659927061,0,0.001831,0.000000,0.000122,37.841797,29.296875,441.894531,86,0.000000,0
100,0,1773659927062,0,0.001831,0.000244,0.000122,58.593750,32.958984,6.243798,86,0.000000,0
100,0,1773659927109,0,0.001831,0.000977,0.000122,70.800781,68.359375,339.355469,86,0.000000,0
100,0,1773659927110,0,0.001587,0.001099,0.000000,79.345703,90.332031,224.609375,86,0.000000,0
100,0,1773659927111,0,0.001099,0.001221,-0.000610,91.552734,80.566406,181.884766,86,0.000000,0
100,0,1773659927156,0,0.000854,0.001831,-0.000366,-41.503906,35.400391,0.129180,86,0.000000,0
100,0,1773659927159,0,0.000854,0.001343,-0.000366,-87.890625,31.738281,-75.683594,86,0.000000,0
100,0,1773659927163,0,0.000977,0.001221,-0.000244,-74.462891,26.855469,-3.322276,86,0.000000,0
100,0,1773659927207,0,0.001221,0.000366,-0.001221,-95.214844,9.765625,-4.366236,86,0.000000,0
100,0,1773659927208,0,0.001221,-0.001343,-0.000366,-266.113281,3.662109,-3.556635,86,0.000000,0
100,0,1773659927209,0,0.001221,-0.001587,0.000000,-187.988281,4.882812,-3.599245,86,0.000000,0
100,0,1773659927255,0,0.001831,0.000000,0.000244,-26.855469,13.427734,-4.323625,86,0.000000,0
100,0,1773659927257,0,0.001831,0.000732,-0.000366,37.841797,-41.503906,-4.941479,86,0.000000,0
100,0,1773659927258,0,0.001587,0.000732,-0.000122,-18.310547,-28.076172,-4.749731,86,0.000000,0
100,0,1773659927305,0,0.000000,-0.000854,-0.000610,29.296875,-59.814453,-3.982740,86,0.000000,0
100,0,1773659927306,0,0.000977,0.000854,-0.000244,68.359375,-63.476562,-3.045308,86,0.000000,0
100,0,1773659927306,0,0.001343,0.000732,-0.000366,-26.855469,-37.841797,-2.960087,86,0.000000,0
100,0,1773659927351,0,0.000732,0.000000,-0.000244,-93.994141,-20.751953,-85.449219,86,0.000000,0
100,0,1773659927353,0,0.000977,0.000000,-0.000366,-87.890625,-13.427734,-2.171791,86,0.000000,0
100,0,1773659927353,0,0.000854,-0.000122,-0.000122,-87.890625,-13.427734,-2.086570,86,0.000000,0
100,0,1773659927404,0,0.000854,-0.000122,-0.000244,-21.972656,-14.648438,-1.852211,86,0.000000,0
100,0,1773659927405,0,0.000977,0.000000,-0.000244,-6.103516,-10.986328,-1.745685,86,0.000000,0
100,0,1773659927406,0,0.000977,0.000000,-0.000244,-10.986328,-9.765625,-1.703074,86,0.000000,0
100,0,1773659927450,0,0.000977,0.000000,-0.000244,-42.724609,-3.662109,-1.596548,86,0.000000,0
100,0,1773659927450,0,0.000854,0.000000,-0.000244,-54.931641,-2.441406,-1.490022,86,0.000000,0
100,0,1773659927452,0,0.000854,0.000000,-0.000122,-50.048828,-4.882812,-1.490022,86,0.000000,0
100,0,1773659927498,0,0.000854,0.000000,-0.000244,-31.738281,-9.765625,-1.511327,86,0.000000,0
100,0,1773659927500,0,0.000977,0.000000,-0.000366,-52.490234,-6.103516,-30.517578,86,0.000000,0
100,0,1773659927501,0,0.000854,0.000000,-0.000366,-62.255859,-4.882812,-1.532632,86,0.000000,0
100,0,1773659927548,0,0.000854,0.000000,-0.000244,-67.138672,-3.662109,-31.738281,86,0.000000,0
100,0,1773659927599,0,0.000854,0.000000,-0.000244,-58.593750,0.000000,-1.660464,86,0.000000,0
100,0,1773659927600,0,0.000854,0.000000,-0.000244,-52.490234,2.441406,-1.724380,86,0.000000,0
100,0,1773659927601,0,0.000854,0.000000,-0.000244,-41.503906,7.324219,-1.852211,86,0.000000,0
100,0,1773659927601,0,0.000854,0.000000,-0.000244,-34.179688,3.662109,-1.916127,86,0.000000,0
100,0,1773659927645,0,0.000854,0.000000,-0.000244,-30.517578,3.662109,-57.373047,86,0.000000,0
100,0,1773659927645,0,0.000977,0.000000,-0.000244,-34.179688,1.220703,-2.086570,86,0.000000,0
100,0,1773659927646,0,0.000854,0.000000,-0.000244,-32.958984,0.000000,-2.129180,86,0.000000,0
100,0,1773659927692,0,0.000854,0.000000,-0.000122,-24.414062,-7.324219,-2.320928,86,0.000000,0
100,0,1773659927695,0,0.000977,0.000000,-0.000122,-18.310547,-10.986328,-2.512676,86,0.000000,0
100,0,1773659927696,0,0.000977,0.000000,-0.000122,-18.310547,-12.207031,-2.640507,86,0.000000,0
100,0,1773659927745,0,0.000977,0.000000,-0.000244,-17.089844,-18.310547,-107.421875,86,0.000000,0
100,0,1773659927749,0,0.001099,0.000000,-0.000244,-32.958984,-25.634766,-125.732422,86,0.000000,0
100,0,1773659927750,0,0.001221,0.000000,-0.000244,-43.945312,-28.076172,-134.277344,86,0.000000,0
100,0,1773659927792,0,0.001221,0.000000,-0.000122,-58.593750,-31.738281,-3.599245,86,0.000000,0
100,0,1773659927793,0,0.001343,0.000122,-0.000122,-83.007812,-35.400391,-155.029297,86,0.000000,0
100,0,1773659927794,0,0.001343,0.000122,0.000000,-103.759766,-36.621094,-3.748382,86,0.000000,0
100,0,1773659927838,0,0.001465,0.000000,0.000000,-155.029297,-37.841797,-164.794922,86,0.000000,0
100,0,1773659927839,0,0.001709,-0.000244,-0.000122,-234.375000,-43.945312,-170.898438,86,0.000000,0
100,0,1773659927839,0,0.001709,-0.000610,-0.000244,-235.595703,-46.386719,-172.119141,86,0.000000,0
100,0,1773659927889,0,0.001709,-0.000854,-0.000366,-213.623047,-62.255859,-180.664062,86,0.000000,0
100,0,1773659927891,0,0.001465,-0.000610,-0.000488,-150.146484,-76.904297,-192.871094,86,0.000000,0
100,0,1773659927891,0,0.001465,0.000000,-0.000366,-97.656250,-83.007812,-207.519531,86,0.000000,0
100,0,1773659927936,0,0.001587,0.000610,-0.000366,-131.835938,-59.814453,-4.387541,86,0.000000,0
100,0,1773659927936,0,0.001587,0.000000,-0.000366,-195.312500,-62.255859,-3.343582,86,0.000000,0
100,0,1773659927938,0,0.001221,-0.000244,-0.000488,-213.623047,-31.738281,-2.768339,86,0.000000,0
100,0,1773659927985,0,0.000610,-0.000610,-0.000122,-284.423828,-56.152344,-50.048828,86,0.000000,0
100,0,1773659927987,0,0.000366,0.000610,-0.001099,-111.083984,-28.076172,-8.544922,86,0.000000,0
100,0,1773659927988,0,0.000244,0.000122,-0.000366,-136.718750,-106.201172,18.310547,86,0.000000,0
100,0,1773659928036,0,0.000244,-0.000488,-0.000244,-231.933594,-115.966797,85.449219,86,0.000000,0
100,0,1773659928037,0,0.000244,-0.001221,0.000000,-170.898438,-97.656250,139.160156,86,0.000000,0
100,0,1773659928038,0,0.000244,-0.001099,0.000244,-90.332031,-102.539062,1.854909,86,0.000000,0
100,0,1773659928083,0,0.000610,-0.000244,0.000244,12.207031,-100.097656,211.181641,86,0.000000,0
100,0,1773659928085,0,0.000610,0.000000,0.000122,-6.103516,-103.759766,250.244141,86,0.000000,0
100,0,1773659928085,0,0.000610,0.000000,0.000122,-30.517578,-106.201172,269.775391,86,0.000000,0
100,0,1773659928132,0,0.000854,-0.000366,0.000244,-19.531250,-111.083984,310.058594,86,0.000000,0
100,0,1773659928133,0,0.001099,0.000000,0.000244,40.283203,-104.980469,336.914062,86,0.000000,0
100,0,1773659928134,0,0.001221,0.000000,0.000244,23.193359,-92.773438,358.886719,86,0.000000,0
100,0,1773659928181,0,0.001099,-0.000122,0.000366,6.103516,-72.021484,384.521484,86,0.000000,0
100,0,1773659928182,0,0.001343,0.000000,0.000488,30.517578,-57.373047,404.052734,86,0.000000,0
100,0,1773659928183,0,0.001465,0.000000,0.000488,26.855469,-45.166016,413.818359,86,0.000000,0
100,0,1773659928278,0,0.001587,-0.000122,0.000366,26.855469,-15.869141,6.563377,86,0.000000,0
100,0,1773659928278,0,0.001831,-0.000122,0.000244,54.931641,6.103516,6.904262,86,0.000000,0
100,0,1773659928280,0,0.001831,-0.000122,0.000122,74.462891,17.089844,6.989483,86,0.000000,0
100,0,1773659928282,0,0.001831,0.000000,0.000000,129.394531,37.841797,6.904262,86,0.000000,0
100,0,1773659928328,0,0.001831,0.000610,0.000000,164.794922,57.373047,396.728516,86,0.000000,0
100,0,1773659928328,0,0.000854,0.001831,-0.000610,48.828125,18.310547,202.636719,86,0.000000,0
100,0,1773659928330,0,0.001099,0.001831,-0.000366,-32.958984,19.531250,139.160156,86,0.000000,0
100,0,1773659928376,0,0.000732,0.001709,-0.000366,-43.945312,13.427734,-1.298274,86,0.000000,0
100,0,1773659928376,0,0.000977,0.001221,-0.000366,-14.648438,10.986328,-191.650391,86,0.000000,0
100,0,1773659928378,0,0.001099,0.001099,-0.000244,-9.765625,3.662109,-5.026700,86,0.000000,0
100,0,1773659928426,0,0.001221,-0.000732,-0.000244,-103.759766,-13.427734,-214.843750,86,0.000000,0
100,0,1773659928426,0,0.001221,-0.001831,-0.000122,-145.263672,-10.986328,-3.833603,86,0.000000,0
100,0,1773659928427,0,0.001343,-0.001343,0.000732,-30.517578,10.986328,-3.918825,86,0.000000,0
100,0,1773659928473,0,0.001709,0.000488,0.000000,92.773438,-24.414062,-4.685815,86,0.000000,0
100,0,1773659928475,0,0.001831,0.001099,-0.000732,20.751953,-61.035156,-5.197142,86,0.000000,0
100,0,1773659928475,0,0.001465,0.000732,-0.000610,-30.517578,-67.138672,-5.005394,86,0.000000,0
100,0,1773659928522,0,0.000366,-0.000610,-0.000122,13.427734,-75.683594,-186.767578,86,0.000000,0
100,0,1773659928523,0,0.001099,0.000854,-0.000244,48.828125,-57.373047,-144.042969,86,0.000000,0
100,0,1773659928524,0,0.001343,0.000854,-0.000244,-32.958984,-35.400391,-3.215750,86,0.000000,0
100,0,1773659928570,0,0.000854,-0.000244,-0.000244,-85.449219,-14.648438,-2.725729,86,0.000000,0
100,0,1773659928571,0,0.000977,0.000000,-0.000244,-26.855469,0.000000,-2.193096,86,0.000000,0
100,0,1773659928571,0,0.000977,0.000000,-0.000244,-35.400391,4.882812,-2.086570,86,0.000000,0
100,0,1773659928619,0,0.000977,0.000000,0.000000,-28.076172,0.000000,-1.852211,86,0.000000,0
100,0,1773659928620,0,0.000977,0.000000,0.000000,-24.414062,-3.662109,-1.703074,86,0.000000,0
100,0,1773659928621,0,0.000977,0.000000,0.000000,-28.076172,-3.662109,-1.660464,86,0.000000,0
100,0,1773659928667,0,0.000977,0.000000,-0.000244,-40.283203,0.000000,-1.575243,86,0.000000,0
100,0,1773659928669,0,0.000854,0.000000,-0.000244,-47.607422,3.662109,-1.596548,86,0.000000,0
100,0,1773659928670,0,0.000854,0.000000,-0.000244,-53.710938,7.324219,-1.596548,86,0.000000,0
100,0,1773659928718,0,0.000854,0.000000,-0.000122,-51.269531,8.544922,-1.660464,86,0.000000,0
100,0,1773659928718,0,0.000854,0.000000,-0.000122,-42.724609,7.324219,-1.745685,86,0.000000,0
100,0,1773659928719,0,0.000854,0.000000,-0.000122,-41.503906,6.103516,-1.766990,86,0.000000,0
100,0,1773659928766,0,0.000854,0.000000,-0.000122,-35.400391,7.324219,-51.269531,86,0.000000,0
100,0,1773659928768,0,0.000977,0.000000,-0.000122,-29.296875,9.765625,-56.152344,86,0.000000,0
100,0,1773659928768,0,0.000854,0.000000,-0.000122,-24.414062,12.207031,-2.043959,86,0.000000,0
100,0,1773659928815,0,0.000854,0.000000,-0.000122,-4.882812,8.544922,-65.917969,86,0.000000,0
100,0,1773659928815,0,0.000854,0.000000,-0.000122,9.765625,0.000000,-2.214401,86,0.000000,0
100,0,1773659928816,0,0.000977,0.000000,-0.000122,10.986328,1.220703,-2.320928,86,0.000000,0
100,0,1773659928865,0,0.000977,0.000000,0.000000,14.648438,0.000000,-2.448760,86,0.000000,0
100,0,1773659928866,0,0.000977,0.000122,-0.000122,12.207031,0.000000,-92.773438,86,0.000000,0
100,0,1773659928867,0,0.001099,0.000000,-0.000122,4.882812,-1.220703,-2.725729,86,0.000000,0
100,0,1773659928913,0,0.001099,0.000000,-0.000122,-2.441406,-1.220703,-2.960087,86,0.000000,0
100,0,1773659928916,0,0.001221,0.000000,-0.000122,-6.103516,-3.662109,-126.953125,86,0.000000,0
100,0,1773659928916,0,0.001221,0.000000,0.000000,-7.324219,-3.662109,-134.277344,86,0.000000,0
100,0,1773659928960,0,0.001343,0.000000,0.000000,-18.310547,-7.324219,-3.641856,86,0.000000,0
100,0,1773659928961,0,0.001343,0.000000,0.000000,-29.296875,-8.544922,-169.677734,86,0.000000,0
100,0,1773659928963,0,0.001343,0.000000,0.000000,-35.400391,-8.544922,-4.110572,86,0.000000,0
100,0,1773659929010,0,0.001465,0.000000,0.000000,-65.917969,-9.765625,-187.988281,86,0.000000,0
100,0,1773659929011,0,0.001465,0.000000,0.000000,-119.628906,-10.986328,-192.871094,86,0.000000,0
100,0,1773659929012,0,0.001465,-0.000122,0.000000,-153.808594,-10.986328,-4.430151,86,0.000000,0
100,0,1773659929058,0,0.001709,-0.000610,-0.000122,-186.767578,-14.648438,-4.494067,86,0.000000,0
100,0,1773659929059,0,0.001587,-0.000977,-0.000366,-136.718750,-24.414062,-4.728426,86,0.000000,0
100,0,1773659929061,0,0.001465,-0.000854,-0.000488,-93.994141,-36.621094,-4.877563,86,0.000000,0
100,0,1773659929107,0,0.001587,0.000244,-0.000366,-4.882812,-46.386719,-5.175837,86,0.000000,0
100,0,1773659929109,0,0.001709,0.000488,-0.000610,-72.021484,-20.751953,-4.664510,86,0.000000,0
100,0,1773659929111,0,0.001709,0.000000,-0.000488,-98.876953,-29.296875,-4.344931,86,0.000000,0
100,0,1773659929155,0,0.001343,-0.000366,-0.000366,-108.642578,10.986328,-135.498047,86,0.000000,0
100,0,1773659929156,0,0.000732,-0.000854,0.000366,-164.794922,47.607422,-2.001348,86,0.000000,0
100,0,1773659929157,0,0.000610,-0.000122,0.000366,-69.580078,80.566406,-2.193096,86,0.000000,0
100,0,1773659929205,0,0.000488,0.000244,-0.000122,-29.296875,-17.089844,-13.427734,86,0.000000,0
100,0,1773659929205,0,0.000122,-0.000366,-0.000122,-106.201172,-15.869141,0.022654,86,0.000000,0
100,0,1773659929206,0,0.000244,-0.000610,0.000000,-117.187500,-26.855469,0.661813,86,0.000000,0
100,0,1773659929256,0,0.000244,-0.000732,0.000122,-29.296875,17.089844,1.599245,86,0.000000,0
100,0,1773659929256,0,0.000366,-0.000244,0.000000,59.814453,4.882812,2.217099,86,0.000000,0
100,0,1773659929257,0,0.000488,0.000000,0.000000,74.462891,0.000000,2.536678,86,0.000000,0
100,0,1773659929301,0,0.000488,0.000000,-0.000244,58.593750,-4.882812,3.346279,86,0.000000,0
100,0,1773659929302,0,0.000610,-0.000244,-0.000122,62.255859,-12.207031,3.985437,86,0.000000,0
100,0,1773659929303,0,0.000732,-0.000244,0.000000,76.904297,-13.427734,4.305017,86,0.000000,0
100,0,1773659929350,0,0.000854,-0.000122,0.000000,119.628906,-14.648438,4.816344,86,0.000000,0
100,0,1773659929352,0,0.000977,0.000000,0.000000,136.718750,-10.986328,5.434197,86,0.000000,0
100,0,1773659929352,0,0.001099,0.000000,0.000000,133.056641,-6.103516,5.625945,86,0.000000,0
100,0,1773659929400,0,0.001343,0.000000,0.000000,135.498047,3.662109,405.273438,86,0.000000,0
100,0,1773659929402,0,0.001465,0.000000,-0.000122,140.380859,17.089844,427.246094,86,0.000000,0
100,0,1773659929403,0,0.001587,0.000000,-0.000122,145.263672,24.414062,438.232422,86,0.000000,0
100,0,1773659929448,0,0.001831,0.000000,-0.000244,155.029297,32.958984,6.968178,86,0.000000,0
100,0,1773659929449,0,0.001831,0.000000,-0.000366,146.484375,45.166016,458.984375,86,0.000000,0
100,0,1773659929450,0,0.001831,0.000122,-0.000366,137.939453,48.828125,6.904262,86,0.000000,0
100,0,1773659929496,0,0.001831,0.000488,-0.000366,100.097656,51.269531,6.478157,86,0.000000,0
100,0,1773659929497,0,0.001831,0.000854,-0.000610,31.738281,37.841797,5.221144,86,0.000000,0
100,0,1773659929499,0,0.001343,0.001221,-0.000610,-4.882812,14.648438,314.941406,86,0.000000,0
100,0,1773659929593,0,0.001221,0.001831,0.000000,-134.277344,12.207031,2.643204,86,0.000000,0
100,0,1773659929595,0,0.000732,0.001709,-0.000244,-87.890625,4.882812,-0.105178,86,0.000000,0
100,0,1773659929595,0,0.000854,0.001587,-0.000244,-69.580078,8.544922,-42.724609,86,0.000000,0
100,0,1773659929598,0,0.000854,0.001221,-0.000244,-29.296875,-4.882812,-3.833603,86,0.000000,0
100,0,1773659929645,0,0.001343,0.000732,-0.000122,-24.414062,-34.179688,-250.244141,86,0.000000,0
100,0,1773659929647,0,0.001343,-0.001831,0.000854,76.904297,12.207031,-158.691406,86,0.000000,0
100,0,1773659929648,0,0.001831,-0.000488,0.000610,198.974609,17.089844,-4.238404,86,0.000000,0
100,0,1773659929693,0,0.001831,0.001343,-0.001221,223.388672,-146.484375,-263.671875,86,0.000000,0
100,0,1773659929694,0,0.001831,0.001221,-0.000244,114.746094,-73.242188,-5.985437,86,0.000000,0
100,0,1773659929695,0,0.000732,0.000122,0.000000,6.103516,-98.876953,-220.947266,86,0.000000,0
100,0,1773659929741,0,0.000366,0.000000,-0.000244,92.773438,-93.994141,-4.217099,85,0.000000,0
100,0,1773659929742,0,0.000977,0.000977,-0.000122,-108.642578,-20.751953,-3.279666,85,0.000000,0
100,0,1773659929742,0,0.001343,0.000000,-0.000122,-167.236328,2.441406,-3.066613,85,0.000000,0
100,0,1773659929788,0,0.000854,-0.000488,0.000000,-72.021484,-17.089844,-2.384844,85,0.000000,0
100,0,1773659929789,0,0.000977,0.000000,-0.000122,-6.103516,-26.855469,-2.214401,85,0.000000,0
100,0,1773659929791,0,0.000977,0.000000,-0.000122,-14.648438,-14.648438,-2.129180,85,0.000000,0
100,0,1773659929839,0,0.000977,0.000000,0.000000,-4.882812,-4.882812,-56.152344,85,0.000000,0
100,0,1773659929840,0,0.000977,0.000000,-0.000244,-7.324219,-1.220703,-1.894822,85,0.000000,0
100,0,1773659929841,0,0.000977,0.000000,-0.000244,-24.414062,8.544922,-1.873517,85,0.000000,0
100,0,1773659929886,0,0.000854,0.000000,-0.000244,-59.814453,17.089844,-42.724609,85,0.000000,0
100,0,1773659929887,0,0.000854,-0.000122,-0.000122,-31.738281,10.986328,-1.745685,85,0.000000,0
100,0,1773659929890,0,0.000854,-0.000244,0.000000,-7.324219,10.986328,-1.830906,85,0.000000,0
100,0,1773659929935,0,0.000854,0.000000,-0.000122,37.841797,2.441406,-1.916127,85,0.000000,0
100,0,1773659929938,0,0.000977,0.000000,-0.000122,6.103516,8.544922,-1.958738,85,0.000000,0
100,0,1773659929938,0,0.000854,0.000000,-0.000122,-1.220703,7.324219,-2.001348,85,0.000000,0
100,0,1773659929984,0,0.000854,0.000000,0.000000,-2.441406,4.882812,-59.814453,85,0.000000,0
100,0,1773659929985,0,0.000977,0.000000,0.000000,0.000000,3.662109,-62.255859,85,0.000000,0
100,0,1773659929987,0,0.000977,0.000000,0.000000,4.882812,0.000000,-64.697266,85,0.000000,0
100,0,1773659930082,0,0.000977,0.000000,-0.000122,3.662109,0.000000,-2.193096,85,0.000000,0
100,0,1773659930084,0,0.000977,0.000000,-0.000122,-3.662109,-2.441406,-2.193096,85,0.000000,0
100,0,1773659930084,0,0.000977,0.000000,0.000000,-6.103516,-3.662109,-2.214401,85,0.000000,0
100,0,1773659930085,0,0.000977,0.000000,0.000000,-9.765625,-3.662109,-2.299623,85,0.000000,0
100,0,1773659930132,0,0.000977,0.000000,0.000000,-8.544922,-4.882812,-2.512676,85,0.000000,0
100,0,1773659930133,0,0.001221,0.000000,-0.000122,-20.751953,-10.986328,-3.066613,85,0.000000,0
100,0,1773659930133,0,0.001221,0.000000,0.000000,-24.414062,-12.207031,-3.237055,85,0.000000,0
100,0,1773659930181,0,0.001343,0.000000,0.000000,-29.296875,-13.427734,-150.146484,85,0.000000,0
100,0,1773659930182,0,0.001343,0.000000,0.000000,-37.841797,-12.207031,-3.982740,85,0.000000,0
100,0,1773659930183,0,0.001343,0.000000,0.000000,-45.166016,-13.427734,-4.110572,85,0.000000,0
100,0,1773659930229,0,0.001465,0.000000,0.000000,-76.904297,-13.427734,-186.767578,85,0.000000,0
100,0,1773659930230,0,0.001465,0.000000,0.000000,-118.408203,-13.427734,-4.344931,85,0.000000,0
100,0,1773659930231,0,0.001587,-0.000122,0.000000,-136.718750,-9.765625,-4.408846,85,0.000000,0
100,0,1773659930278,0,0.001709,-0.000488,-0.000122,-147.705078,-10.986328,-201.416016,85,0.000000,0
100,0,1773659930279,0,0.001587,-0.000854,-0.000366,-146.484375,-21.972656,-4.685815,85,0.000000,0
100,0,1773659930281,0,0.001587,-0.000732,-0.000488,-125.732422,-29.296875,-4.707120,85,0.000000,0
100,0,1773659930327,0,0.001587,0.000366,-0.000366,-56.152344,-41.503906,-224.609375,85,0.000000,0
100,0,1773659930328,0,0.001831,0.000488,-0.000488,-114.746094,-29.296875,-4.494067,85,0.000000,0
100,0,1773659930328,0,0.001831,0.000000,-0.000488,-117.187500,-32.958984,-4.174488,85,0.000000,0
100,0,1773659930422,0,0.001343,-0.000488,-0.000366,-134.277344,2.441406,-2.960087,85,0.000000,0
100,0,1773659930425,0,0.000488,-0.000366,0.000244,-101.318359,58.593750,-74.462891,85,0.000000,0
100,0,1773659930426,0,0.000244,0.000488,-0.000854,-40.283203,9.765625,-51.269531,85,0.000000,0
100,0,1773659930472,0,0.000488,0.000000,-0.000488,-92.773438,-28.076172,-1.085221,85,0.000000,0
100,0,1773659930473,0,0.000366,0.000000,0.000000,62.255859,-14.648438,2.217099,85,0.000000,0
100,0,1773659930474,0,0.000366,0.000000,0.000000,50.048828,-17.089844,2.557983,85,0.000000,0
100,0,1773659930520,0,0.000488,-0.000244,0.000000,48.828125,-25.634766,3.324974,85,0.000000,0
100,0,1773659930522,0,0.000610,-0.000244,0.000000,84.228516,-26.855469,3.942827,85,0.000000,0
100,0,1773659930522,0,0.000610,-0.000122,0.000000,95.214844,-28.076172,4.241101,85,0.000000,0
100,0,1773659930569,0,0.000732,0.000000,0.000000,111.083984,-17.089844,4.688512,85,0.000000,0
100,0,1773659930570,0,0.000854,0.000000,0.000000,134.277344,-7.324219,5.327671,85,0.000000,0
100,0,1773659930571,0,0.000977,0.000000,0.000000,140.380859,-2.441406,5.583334,85,0.000000,0
100,0,1773659930619,0,0.001221,-0.000122,0.000000,150.146484,4.882812,6.179883,85,0.000000,0
100,0,1773659930621,0,0.001465,-0.000122,-0.000122,167.236328,12.207031,6.520767,85,0.000000,0
100,0,1773659930621,0,0.001587,-0.000122,-0.000244,186.767578,15.869141,6.755125,85,0.000000,0
100,0,1773659930667,0,0.001831,-0.000122,-0.000366,235.595703,29.296875,7.159925,85,0.000000,0
100,0,1773659930668,0,0.001831,0.000244,-0.000488,225.830078,47.607422,7.096009,85,0.000000,0
100,0,1773659930668,0,0.001831,0.000488,-0.000488,201.416016,50.048828,6.840346,85,0.000000,0
100,0,1773659930718,0,0.001831,0.000977,-0.000488,117.187500,45.166016,406.494141,85,0.000000,0
100,0,1773659930719,0,0.001587,0.001343,-0.000732,-10.986328,31.738281,325.927734,85,0.000000,0
100,0,1773659930720,0,0.001099,0.001831,-0.000732,-76.904297,8.544922,270.996094,85,0.000000,0
100,0,1773659930765,0,0.000854,0.001831,-0.000244,-123.291016,-1.220703,148.925781,85,0.000000,0
100,0,1773659930767,0,0.000854,0.001587,-0.000366,-83.007812,-2.441406,-1.681769,85,0.000000,0
100,0,1773659930768,0,0.000977,0.001343,-0.000366,-80.566406,-1.220703,-2.768339,85,0.000000,0
100,0,1773659930813,0,0.000977,0.001099,-0.000244,-75.683594,-19.531250,-4.302320,85,0.000000,0
100,0,1773659930815,0,0.001343,0.000732,-0.000122,-87.890625,-36.621094,-5.026700,85,0.000000,0
100,0,1773659930816,0,0.001831,-0.000122,0.000122,-114.746094,-17.089844,-4.664510,85,0.000000,0
100,0,1773659930861,0,0.001465,-0.001831,0.001831,4.882812,8.544922,-175.781250,85,0.000000,0
100,0,1773659930862,0,0.001465,-0.000854,0.000610,227.050781,0.000000,-4.089267,85,0.000000,0
100,0,1773659930863,0,0.001465,0.000366,-0.000122,288.085938,-52.490234,-4.728426,85,0.000000,0
100,0,1773659930911,0,0.001831,0.001831,-0.001099,235.595703,-159.912109,-5.559332,85,0.000000,0
100,0,1773659930912,0,0.000000,-0.000244,0.000244,-35.400391,-108.642578,-4.089267,85,0.000000,0
100,0,1773659930913,0,-0.000244,-0.001343,-0.000732,87.890625,-90.332031,-4.323625,85,0.000000,0
100,0,1773659930960,0,0.001221,0.001587,-0.000244,90.332031,8.544922,-142.822266,85,0.000000,0
100,0,1773659930961,0,0.001221,0.000244,-0.000244,-137.939453,21.972656,-118.408203,85,0.000000,0
100,0,1773659930962,0,0.001099,-0.000366,-0.000122,-102.539062,34.179688,-98.876953,85,0.000000,0
100,0,1773659931008,0,0.000854,-0.000122,0.000000,18.310547,13.427734,-2.384844,85,0.000000,0
100,0,1773659931008,0,0.000854,0.000000,0.000000,40.283203,3.662109,-2.257012,85,0.000000,0
100,0,1773659931011,0,0.000977,0.000000,0.000000,54.931641,-1.220703,-2.193096,85,0.000000,0
100,0,1773659931058,0,0.000977,0.000000,0.000000,73.242188,-4.882812,-64.697266,85,0.000000,0
100,0,1773659931060,0,0.000977,0.000122,-0.000244,31.738281,-2.441406,-2.086570,85,0.000000,0
100,0,1773659931061,0,0.000854,0.000244,-0.000244,-18.310547,1.220703,-2.001348,85,0.000000,0
100,0,1773659931106,0,0.000854,0.000000,0.000000,-19.531250,2.441406,-53.710938,85,0.000000,0
100,0,1773659931107,0,0.000977,0.000000,0.000000,13.427734,-6.103516,-1.916127,85,0.000000,0
100,0,1773659931108,0,0.000977,0.000000,0.000000,29.296875,-9.765625,-1.894822,85,0.000000,0
100,0,1773659931155,0,0.000977,0.000122,-0.000122,20.751953,-9.765625,-53.710938,85,0.000000,0
100,0,1773659931201,0,0.000977,0.000000,-0.000122,-8.544922,-8.544922,-1.980043,85,0.000000,0
100,0,1773659931203,0,0.000977,0.000000,-0.000122,-10.986328,-8.544922,-2.022654,85,0.000000,0
100,0,1773659931205,0,0.000977,0.000000,-0.000122,-17.089844,-12.207031,-2.107875,85,0.000000,0
100,0,1773659931253,0,0.001099,0.000000,0.000000,-17.089844,-12.207031,-2.278317,85,0.000000,0
100,0,1773659931255,0,0.000977,0.000000,0.000000,-23.193359,-12.207031,-84.228516,85,0.000000,0
100,0,1773659931256,0,0.001099,0.000000,0.000000,-25.634766,-12.207031,-2.533981,85,0.000000,0
100,0,1773659931300,0,0.001099,0.000000,-0.000122,-21.972656,-12.207031,-2.725729,85,0.000000,0
100,0,1773659931301,0,0.001221,0.000000,0.000000,-25.634766,-12.207031,-117.187500,85,0.000000,0
100,0,1773659931302,0,0.001221,0.000000,0.000000,-28.076172,-12.207031,-3.194445,85,0.000000,0
100,0,1773659931350,0,0.001221,0.000000,0.000000,-29.296875,-12.207031,-144.042969,85,0.000000,0
100,0,1773659931350,0,0.001221,0.000000,0.000000,-34.179688,-15.869141,-3.812298,85,0.000000,0
100,0,1773659931351,0,0.001221,0.000000,0.000000,-39.062500,-15.869141,-3.982740,85,0.000000,0
100,0,1773659931399,0,0.001343,0.000000,0.000000,-48.828125,-18.310547,-4.344931,85,0.000000,0
100,0,1773659931403,0,0.001343,0.000000,-0.000122,-83.007812,-25.634766,-206.298828,85,0.000000,0
100,0,1773659931406,0,0.001587,-0.000122,-0.000122,-104.980469,-26.855469,-4.664510,85,0.000000,0
100,0,1773659931448,0,0.001709,-0.000488,-0.000244,-152.587891,-32.958984,-217.285156,85,0.000000,0
100,0,1773659931448,0,0.001587,-0.000488,-0.000366,-179.443359,-37.841797,-4.813647,85,0.000000,0
100,0,1773659931449,0,0.001587,-0.000610,-0.000366,-183.105469,-39.062500,-4.771036,85,0.000000,0
100,0,1773659931496,0,0.001587,0.000000,-0.000488,-134.277344,-41.503906,-4.877563,85,0.000000,0
100,0,1773659931497,0,0.001831,0.000000,-0.000488,-133.056641,-30.517578,-200.195312,85,0.000000,0
100,0,1773659931498,0,0.001831,-0.000366,-0.000244,-139.160156,-31.738281,-4.025351,85,0.000000,0
100,0,1773659931546,0,0.001099,-0.000977,-0.000122,-162.353516,1.220703,-86.669922,85,0.000000,0
100,0,1773659931547,0,0.000366,-0.000122,0.000122,-96.435547,14.648438,-36.621094,85,0.000000,0
100,0,1773659931549,0,0.000488,0.000854,0.000000,-72.021484,-17.089844,-19.531250,85,0.000000,0
100,0,1773659931593,0,0.000610,0.000122,-0.000610,-52.490234,-14.648438,13.427734,85,0.000000,0
100,0,1773659931595,0,0.000000,-0.000610,0.000000,-101.318359,-89.111328,0.640507,85,0.000000,0
100,0,1773659931595,0,0.000122,-0.000854,0.000244,-39.062500,-59.814453,1.258361,85,0.000000,0
100,0,1773659931641,0,0.000366,-0.000488,0.000000,96.435547,-54.931641,2.238404,85,0.000000,0
100,0,1773659931642,0,0.000366,0.000000,-0.000122,103.759766,-54.931641,3.090615,85,0.000000,0
100,0,1773659931643,0,0.000366,0.000000,-0.000244,76.904297,-70.800781,3.388889,85,0.000000,0
100,0,1773659931691,0,0.000610,0.000000,0.000000,24.414062,-83.007812,3.985437,85,0.000000,0
100,0,1773659931691,0,0.000854,-0.000122,0.000122,8.544922,-78.125000,4.475459,85,0.000000,0
100,0,1773659931692,0,0.000854,-0.000122,0.000244,8.544922,-72.021484,4.731122,85,0.000000,0
100,0,1773659931738,0,0.000854,-0.000244,0.000244,42.724609,-63.476562,5.306365,85,0.000000,0
100,0,1773659931746,0,0.001099,-0.000122,0.000244,73.242188,-51.269531,394.287109,85,0.000000,0
100,0,1773659931747,0,0.001221,0.000000,0.000244,76.904297,-43.945312,6.115966,85,0.000000,0
100,0,1773659931789,0,0.001465,0.000000,0.000122,83.007812,-26.855469,438.232422,85,0.000000,0
100,0,1773659931791,0,0.001709,-0.000122,0.000000,93.994141,-13.427734,461.425781,85,0.000000,0
100,0,1773659931791,0,0.001831,-0.000122,0.000000,109.863281,-10.986328,7.266452,85,0.000000,0
100,0,1773659931886,0,0.001831,-0.000122,-0.000122,145.263672,2.441406,484.619141,85,0.000000,0
100,0,1773659931887,0,0.001831,0.000366,-0.000244,153.808594,20.751953,466.308594,85,0.000000,0
100,0,1773659931889,0,0.001831,0.000854,-0.000122,126.953125,35.400391,438.232422,85,0.000000,0
100,0,1773659931890,0,0.001831,0.001221,-0.000122,29.296875,72.021484,338.134766,85,0.000000,0
100,0,1773659931936,0,0.000977,0.001831,-0.000488,-124.511719,3.662109,2.067962,85,0.000000,0
100,0,1773659931938,0,0.001099,0.001221,-0.000366,-87.890625,4.882812,-3.428803,85,0.000000,0
100,0,1773659931938,0,0.001099,0.001099,-0.000366,-79.345703,4.882812,-190.429688,85,0.000000,0
100,0,1773659931984,0,0.001343,0.000732,-0.000366,-76.904297,-30.517578,-251.464844,85,0.000000,0
100,0,1773659931985,0,0.001099,-0.001831,0.000000,-190.429688,-30.517578,-181.884766,85,0.000000,0
100,0,1773659931986,0,0.001221,-0.001831,0.000977,-42.724609,7.324219,-4.110572,85,0.000000,0
100,0,1773659932032,0,0.001709,-0.000366,0.000610,250.244141,13.427734,-179.443359,85,0.000000,0
100,0,1773659932033,0,0.001831,0.001343,-0.001221,255.126953,-118.408203,-244.140625,85,0.000000,0
100,0,1773659932033,0,0.001831,0.001587,-0.000610,205.078125,-95.214844,-5.623248,85,0.000000,0
100,0,1773659932082,0,0.000122,-0.000244,0.000000,2.441406,-109.863281,-4.621899,85,0.000000,0
100,0,1773659932082,0,0.000610,0.000000,-0.000366,153.808594,-75.683594,-3.918825,85,0.000000,0
100,0,1773659932083,0,0.001343,0.001343,-0.000122,74.462891,-17.089844,-3.535329,85,0.000000,0
100,0,1773659932130,0,0.000977,0.000366,-0.000366,-144.042969,-24.414062,-3.258361,85,0.000000,0
100,0,1773659932132,0,0.000977,-0.000244,-0.000122,-83.007812,-3.662109,-89.111328,85,0.000000,0
100,0,1773659932134,0,0.000854,-0.000244,-0.000122,-39.062500,-13.427734,-78.125000,85,0.000000,0
100,0,1773659932227,0,0.000977,0.000000,-0.000122,2.441406,-17.089844,-2.129180,85,0.000000,0
100,0,1773659932228,0,0.000977,0.000000,-0.000122,8.544922,-18.310547,-2.043959,85,0.000000,0
100,0,1773659932230,0,0.000854,0.000000,-0.000122,17.089844,-18.310547,-1.958738,85,0.000000,0
100,0,1773659932276,0,0.000977,0.000000,-0.000244,-1.220703,-13.427734,-46.386719,85,0.000000,0
100,0,1773659932277,0,0.000854,0.000000,-0.000122,-9.765625,-17.089844,-1.745685,85,0.000000,0
100,0,1773659932278,0,0.000977,0.000000,-0.000244,-12.207031,-17.089844,-1.745685,85,0.000000,0
100,0,1773659932327,0,0.000854,0.000000,-0.000244,-48.828125,-10.986328,-1.809601,85,0.000000,0
100,0,1773659932329,0,0.000854,0.000000,-0.000244,-47.607422,-8.544922,-1.894822,85,0.000000,0
100,0,1773659932330,0,0.000854,0.000000,-0.000122,-42.724609,-4.882812,-1.937433,85,0.000000,0
100,0,1773659932372,0,0.000977,0.000000,0.000000,-32.958984,3.662109,-2.065264,85,0.000000,0
100,0,1773659932373,0,0.000854,0.000000,-0.000122,-20.751953,-4.882812,-2.129180,85,0.000000,0
100,0,1773659932375,0,0.000977,0.000000,-0.000122,-14.648438,2.441406,-2.171791,85,0.000000,0
100,0,1773659932424,0,0.000854,0.000000,-0.000122,-6.103516,1.220703,-2.235707,85,0.000000,0
100,0,1773659932426,0,0.000977,0.000000,-0.000122,-2.441406,0.000000,-2.299623,85,0.000000,0
100,0,1773659932426,0,0.000977,0.000000,-0.000122,-2.441406,-1.220703,-2.342233,85,0.000000,0
100,0,1773659932470,0,0.000977,0.000000,-0.000244,-7.324219,-6.103516,-2.427454,85,0.000000,0
100,0,1773659932472,0,0.000977,0.000000,-0.000244,-17.089844,-9.765625,-2.597897,85,0.000000,0
100,0,1773659932474,0,0.001099,0.000000,-0.000122,-20.751953,-10.986328,-2.683118,85,0.000000,0
100,0,1773659932520,0,0.001099,0.000000,-0.000122,-24.414062,-13.427734,-113.525391,85,0.000000,0
100,0,1773659932523,0,0.001099,0.000000,-0.000122,-35.400391,-18.310547,-3.237055,85,0.000000,0
100,0,1773659932525,0,0.001221,0.000000,-0.000122,-42.724609,-18.310547,-3.407498,85,0.000000,0
100,0,1773659932568,0,0.001221,0.000000,-0.000122,-56.152344,-21.972656,-3.812298,85,0.000000,0
100,0,1773659932570,0,0.001343,0.000000,-0.000244,-112.304688,-32.958984,-4.323625,85,0.000000,0
100,0,1773659932571,0,0.001587,0.000000,-0.000244,-139.160156,-37.841797,-4.451457,85,0.000000,0
100,0,1773659932618,0,0.001831,-0.000122,-0.000244,-190.429688,-48.828125,-4.707120,85,0.000000,0
100,0,1773659932619,0,0.001831,-0.000244,-0.000244,-229.492188,-56.152344,-214.843750,85,0.000000,0
100,0,1773659932621,0,0.001831,-0.000366,-0.000244,-257.568359,-57.373047,-4.707120,85,0.000000,0
100,0,1773659932666,0,0.001709,-0.000732,-0.000488,-268.554688,-63.476562,-4.664510,85,0.000000,0
100,0,1773659932668,0,0.001343,0.000000,-0.000488,-144.042969,-80.566406,-218.505859,85,0.000000,0
100,0,1773659932668,0,0.001587,0.000244,-0.000366,-119.628906,-73.242188,-4.430151,85,0.000000,0
100,0,1773659932714,0,0.001465,0.000366,-0.000488,-156.250000,-76.904297,-3.428803,85,0.000000,0
100,0,1773659932715,0,0.001221,0.000000,-0.000366,-220.947266,-73.242188,-104.980469,85,0.000000,0
100,0,1773659932716,0,0.000854,-0.000244,0.000000,-279.541016,-63.476562,-2.193096,85,0.000000,0
100,0,1773659932763,0,0.000000,0.000000,-0.000488,-194.091797,-28.076172,-1.660464,85,0.000000,0
100,0,1773659932764,0,0.000000,-0.000122,-0.000244,-180.664062,-131.835938,-0.786947,85,0.000000,0
100,0,1773659932765,0,0.000244,-0.000366,-0.000122,-181.884766,-131.835938,-0.190399,85,0.000000,0
100,0,1773659932812,0,0.000244,-0.001221,0.000000,-107.421875,-124.511719,113.525391,85,0.000000,0
100,0,1773659932813,0,0.000488,-0.000488,0.000244,34.179688,-123.291016,162.353516,85,0.000000,0
100,0,1773659932814,0,0.000488,-0.000122,0.000244,50.048828,-128.173828,180.664062,85,0.000000,0
100,0,1773659932863,0,0.000488,0.000000,0.000122,34.179688,-134.277344,229.492188,85,0.000000,0
100,0,1773659932865,0,0.000610,-0.000244,0.000122,42.724609,-146.484375,3.836300,85,0.000000,0
100,0,1773659932865,0,0.000732,-0.000244,0.000244,52.490234,-144.042969,4.198491,85,0.000000,0
100,0,1773659932911,0,0.000977,-0.000122,0.000366,51.269531,-126.953125,334.472656,85,0.000000,0
100,0,1773659932912,0,0.001099,0.000000,0.000488,30.517578,-107.421875,5.285060,85,0.000000,0
100,0,1773659932913,0,0.001221,0.000000,0.000488,20.751953,-95.214844,5.540724,85,0.000000,0
100,0,1773659932960,0,0.001343,0.000000,0.000488,4.882812,-68.359375,402.832031,85,0.000000,0
100,0,1773659932960,0,0.001465,0.000000,0.000366,-9.765625,-45.166016,6.456851,85,0.000000,0
100,0,1773659932960,0,0.001465,0.000000,0.000366,-21.972656,-31.738281,6.627294,85,0.000000,0
100,0,1773659933007,0,0.001831,0.000000,0.000244,-39.062500,-2.441406,6.904262,85,0.000000,0
100,0,1773659933007,0,0.001831,-0.000122,0.000122,-23.193359,8.544922,465.087891,85,0.000000,0
100,0,1773659933009,0,0.001831,-0.000122,0.000122,3.662109,12.207031,7.096009,85,0.000000,0
100,0,1773659933056,0,0.001831,0.000610,0.000000,20.751953,17.089844,6.627294,85,0.000000,0
100,0,1773659933057,0,0.001831,0.001099,0.000122,-45.166016,42.724609,5.540724,85,0.000000,0
100,0,1773659933058,0,0.001831,0.001099,0.000000,-59.814453,58.593750,4.709817,85,0.000000,0
100,0,1773659933105,0,0.001221,0.001221,-0.000244,-43.945312,54.931641,224.609375,85,0.000000,0
100,0,1773659933106,0,0.000732,0.001831,-0.000244,-129.394531,26.855469,83.007812,85,0.000000,0
100,0,1773659933108,0,0.000732,0.001709,-0.000122,-163.574219,28.076172,13.427734,85,0.000000,0
100,0,1773659933153,0,0.000977,0.001099,-0.000122,-134.277344,17.089844,-2.832255,85,0.000000,0
100,0,1773659933154,0,0.001099,0.000732,-0.000122,-104.980469,15.869141,-4.387541,85,0.000000,0
100,0,1773659933155,0,0.001465,-0.000366,-0.000366,-118.408203,-3.662109,-4.067962,85,0.000000,0
100,0,1773659933202,0,0.000977,-0.001831,-0.000122,-37.841797,-26.855469,-3.386192,85,0.000000,0
100,0,1773659933204,0,0.001709,-0.000610,0.000122,241.699219,15.869141,-3.641856,85,0.000000,0
100,0,1773659933205,0,0.001831,-0.000122,0.000122,211.181641,2.441406,-3.918825,85,0.000000,0
100,0,1773659933252,0,0.001831,0.001709,-0.000122,206.298828,-48.828125,-240.478516,85,0.000000,0
100,0,1773659933252,0,0.000977,0.000366,0.000000,-23.193359,-54.931641,-209.960938,85,0.000000,0
100,0,1773659933253,0,0.000122,-0.000610,-0.000488,-7.324219,-59.814453,-185.546875,85,0.000000,0
100,0,1773659933299,0,0.000854,0.000732,-0.000122,80.566406,-32.958984,-3.151834,85,0.000000,0
100,0,1773659933301,0,0.001099,0.000366,-0.000244,-96.435547,-19.531250,-2.725729,85,0.000000,0
100,0,1773659933303,0,0.000854,-0.000122,-0.000366,-108.642578,-14.648438,-2.406149,85,0.000000,0
100,0,1773659933348,0,0.000977,0.000000,-0.000244,-54.931641,-2.441406,-1.958738,85,0.000000,0
100,0,1773659933350,0,0.000854,-0.000122,-0.000122,-34.179688,-3.662109,-1.745685,85,0.000000,0
100,0,1773659933352,0,0.000854,-0.000122,-0.000244,-18.310547,-4.882812,-1.660464,85,0.000000,0
100,0,1773659933400,0,0.000854,0.000000,-0.000122,-6.103516,-8.544922,-29.296875,85,0.000000,0
100,0,1773659933400,0,0.000854,0.000000,-0.000244,-2.441406,-8.544922,-24.414062,85,0.000000,0
100,0,1773659933402,0,0.000977,0.000000,-0.000244,-15.869141,-2.441406,-1.404800,85,0.000000,0
100,0,1773659933447,0,0.000854,0.000000,-0.000244,-35.400391,1.220703,-1.340885,85,0.000000,0
100,0,1773659933449,0,0.000854,-0.000122,-0.000244,-28.076172,-1.220703,-18.310547,85,0.000000,0
100,0,1773659933450,0,0.000854,0.000000,-0.000244,-24.414062,-4.882812,-1.319579,85,0.000000,0
100,0,1773659933494,0,0.000854,-0.000122,-0.000244,-19.531250,-8.544922,-1.383495,85,0.000000,0
100,0,1773659933495,0,0.000854,0.000000,-0.000244,-24.414062,-8.544922,-1.468716,85,0.000000,0
100,0,1773659933497,0,0.000854,0.000000,-0.000244,-30.517578,-6.103516,-1.511327,85,0.000000,0
100,0,1773659933545,0,0.000854,-0.000122,-0.000244,-31.738281,-7.324219,-36.621094,85,0.000000,0
100,0,1773659933546,0,0.000854,0.000000,-0.000122,-18.310547,-12.207031,-1.766990,85,0.000000,0
100,0,1773659933547,0,0.000854,0.000000,-0.000244,-13.427734,-17.089844,-1.873517,85,0.000000,0
100,0,1773659933592,0,0.000854,0.000000,-0.000244,-15.869141,-14.648438,-52.490234,85,0.000000,0
100,0,1773659933592,0,0.000854,0.000000,-0.000244,-21.972656,-6.103516,-57.373047,85,0.000000,0
100,0,1773659933593,0,0.000854,0.000000,-0.000244,-25.634766,-8.544922,-2.043959,85,0.000000,0
100,0,1773659933690,0,0.000977,0.000000,-0.000244,-29.296875,-9.765625,-2.150486,85,0.000000,0
100,0,1773659933690,0,0.000854,0.000000,-0.000122,-28.076172,-9.765625,-2.235707,85,0.000000,0
100,0,1773659933691,0,0.000977,0.000000,-0.000122,-24.414062,-6.103516,-2.320928,85,0.000000,0
100,0,1773659933738,0,0.000977,0.000000,-0.000244,-26.855469,-7.324219,-2.491370,85,0.000000,0
100,0,1773659933738,0,0.001099,0.000000,-0.000244,-62.255859,-34.179688,-3.258361,85,0.000000,0
100,0,1773659933739,0,0.001099,0.000000,-0.000244,-73.242188,-37.841797,-3.386192,85,0.000000,0
100,0,1773659933785,0,0.001221,0.000000,-0.000244,-102.539062,-46.386719,-3.684466,85,0.000000,0
100,0,1773659933787,0,0.001343,0.000122,-0.000244,-146.484375,-58.593750,-170.898438,85,0.000000,0
100,0,1773659933788,0,0.001343,0.000000,-0.000244,-173.339844,-65.917969,-179.443359,85,0.000000,0
100,0,1773659933835,0,0.001587,0.000000,-0.000366,-246.582031,-84.228516,-184.326172,85,0.000000,0
100,0,1773659933835,0,0.001831,-0.000122,-0.000488,-322.265625,-95.214844,-4.174488,85,0.000000,0
100,0,1773659933835,0,0.001831,-0.000244,-0.000610,-369.873047,-97.656250,-4.089267,85,0.000000,0
100,0,1773659933886,0,0.001831,-0.000854,-0.000732,-406.494141,-101.318359,-4.067962,85,0.000000,0
100,0,1773659933887,0,0.001465,-0.000488,-0.000488,-302.734375,-119.628906,-4.302320,85,0.000000,0
100,0,1773659933889,0,0.001465,0.000000,-0.000488,-219.726562,-122.070312,-4.174488,85,0.000000,0
100,0,1773659933933,0,0.001465,0.000854,-0.000122,-231.933594,-101.318359,-142.822266,85,0.000000,0
100,0,1773659933934,0,0.001099,0.000244,-0.000610,-303.955078,-118.408203,-104.980469,85,0.000000,0
100,0,1773659933935,0,0.000854,-0.000122,-0.000122,-354.003906,-113.525391,-2.022654,85,0.000000,0
100,0,1773659933981,0,0.000000,-0.000244,-0.000610,-272.216797,-102.539062,-35.400391,85,0.000000,0
100,0,1773659933982,0,0.000244,-0.000732,0.000000,-229.492188,-158.691406,46.386719,85,0.000000,0
100,0,1773659933984,0,0.000366,-0.000977,0.000000,-206.298828,-156.250000,79.345703,85,0.000000,0
100,0,1773659934031,0,0.000488,-0.000977,0.000488,-74.462891,-151.367188,120.849609,85,0.000000,0
100,0,1773659934032,0,0.000610,-0.000244,0.000488,-1.220703,-156.250000,1.727077,85,0.000000,0
100,0,1773659934032,0,0.000610,-0.000122,0.000488,2.441406,-152.587891,2.131877,85,0.000000,0
100,0,1773659934080,0,0.000610,-0.000244,0.000366,32.958984,-159.912109,220.947266,85,0.000000,0
100,0,1773659934080,0,0.000854,-0.000244,0.000488,61.035156,-147.705078,3.495416,85,0.000000,0
100,0,1773659934081,0,0.000854,-0.000122,0.000488,63.476562,-140.380859,3.857606,85,0.000000,0
100,0,1773659934128,0,0.001099,0.000000,0.000488,37.841797,-113.525391,4.581985,85,0.000000,0
100,0,1773659934130,0,0.001099,0.000000,0.000488,7.324219,-97.656250,5.008091,85,0.000000,0
100,0,1773659934131,0,0.001221,0.000000,0.000488,-6.103516,-86.669922,5.306365,85,0.000000,0
100,0,1773659934177,0,0.001221,0.000000,0.000488,-32.958984,-57.373047,5.775082,85,0.000000,0
100,0,1773659934178,0,0.001343,0.000000,0.000610,-43.945312,-35.400391,6.158577,85,0.000000,0
100,0,1773659934178,0,0.001343,0.000000,0.000366,-45.166016,-26.855469,6.414240,85,0.000000,0
100,0,1773659934225,0,0.001587,0.000000,0.000488,-41.503906,-3.662109,6.776431,85,0.000000,0
100,0,1773659934226,0,0.001831,-0.000122,0.000244,-52.490234,14.648438,7.074704,85,0.000000,0
100,0,1773659934227,0,0.001831,-0.000122,0.000244,-42.724609,20.751953,7.138620,85,0.000000,0
100,0,1773659934273,0,0.001831,0.000122,0.000000,8.544922,30.517578,6.861651,85,0.000000,0
100,0,1773659934275,0,0.001831,0.000610,0.000000,37.841797,34.179688,408.935547,85,0.000000,0
100,0,1773659934276,0,0.001831,0.000854,0.000000,34.179688,43.945312,5.540724,85,0.000000,0
100,0,1773659934323,0,0.001831,0.001221,0.000000,1.220703,64.697266,3.751080,85,0.000000,0
100,0,1773659934323,0,0.000732,0.001831,-0.000610,-3.662109,31.738281,1.514024,85,0.000000,0
100,0,1773659934324,0,0.000732,0.001831,-0.000488,-73.242188,26.855469,0.342233,85,0.000000,0
100,0,1773659934373,0,0.000732,0.001343,-0.000244,-136.718750,17.089844,-52.490234,85,0.000000,0
100,0,1773659934373,0,0.001099,0.001099,-0.000244,-106.201172,10.986328,-3.876214,85,0.000000,0
100,0,1773659934374,0,0.001221,0.000977,-0.000122,-84.228516,12.207031,-4.621899,85,0.000000,0
100,0,1773659934419,0,0.000977,-0.001831,-0.000854,-133.056641,-23.193359,-3.641856,85,0.000000,0
100,0,1773659934421,0,0.000977,-0.001831,0.000244,65.917969,4.882812,-3.577940,85,0.000000,0
100,0,1773659934422,0,0.001221,-0.000488,0.000000,223.388672,0.000000,-3.407498,85,0.000000,0
100,0,1773659934468,0,0.001831,0.000488,0.000000,139.160156,-17.089844,-3.961435,85,0.000000,0
100,0,1773659934471,0,0.001831,0.001343,-0.000122,111.083984,-39.062500,-206.298828,85,0.000000,0
100,0,1773659934471,0,0.001221,0.000488,-0.000122,10.986328,-52.490234,-4.451457,85,0.000000,0
100,0,1773659934519,0,0.000244,-0.000488,-0.000366,36.621094,-50.048828,-3.577940,85,0.000000,0
100,0,1773659934519,0,0.001221,0.000732,-0.000122,-1.220703,0.000000,-2.832255,85,0.000000,0
100,0,1773659934520,0,0.001099,0.000366,-0.000244,-68.359375,-18.310547,-96.435547,85,0.000000,0
100,0,1773659934567,0,0.000854,-0.000122,-0.000366,-76.904297,-8.544922,-68.359375,85,0.000000,0
100,0,1773659934568,0,0.000854,0.000000,-0.000244,-62.255859,-1.220703,-1.894822,85,0.000000,0
100,0,1773659934569,0,0.000854,-0.000122,-0.000244,-41.503906,-6.103516,-1.809601,85,0.000000,0
100,0,1773659934615,0,0.000854,-0.000122,-0.000244,-2.441406,-8.544922,-1.703074,85,0.000000,0
100,0,1773659934616,0,0.000854,0.000000,-0.000244,-1.220703,-7.324219,-1.575243,85,0.000000,0
100,0,1773659934617,0,0.000977,0.000000,-0.000244,-14.648438,-2.441406,-1.532632,85,0.000000,0
100,0,1773659934666,0,0.000854,0.000000,-0.000244,-50.048828,2.441406,-26.855469,85,0.000000,0
100,0,1773659934667,0,0.000854,0.000000,-0.000244,-58.593750,1.220703,-23.193359,85,0.000000,0
100,0,1773659934668,0,0.000854,-0.000122,-0.000244,-56.152344,0.000000,-24.414062,85,0.000000,0
100,0,1773659934715,0,0.000854,-0.000122,-0.000244,-41.503906,-3.662109,-29.296875,85,0.000000,0
100,0,1773659934716,0,0.000854,-0.000122,-0.000244,-30.517578,-6.103516,-1.596548,85,0.000000,0
100,0,1773659934716,0,0.000854,0.000000,-0.000244,-32.958984,-6.103516,-1.660464,85,0.000000,0
100,0,1773659934763,0,0.000854,0.000000,-0.000244,-42.724609,-6.103516,-1.724380,85,0.000000,0
100,0,1773659934764,0,0.000854,-0.000122,-0.000244,-32.958984,-1.220703,-1.937433,85,0.000000,0
100,0,1773659934765,0,0.000977,-0.000122,-0.000244,-35.400391,3.662109,-1.788296,85,0.000000,0
100,0,1773659934812,0,0.001099,0.000000,-0.000122,-32.958984,0.000000,-57.373047,85,0.000000,0
100,0,1773659934813,0,0.000977,0.000000,-0.000244,-19.531250,-2.441406,-59.814453,85,0.000000,0
100,0,1773659934815,0,0.000854,0.000000,-0.000244,-20.751953,-4.882812,-2.043959,85,0.000000,0
100,0,1773659934859,0,0.000977,0.000000,-0.000122,-20.751953,-2.441406,-2.065264,85,0.000000,0
100,0,1773659934860,0,0.000977,0.000000,-0.000122,-23.193359,-1.220703,-2.150486,85,0.000000,0
100,0,1773659934861,0,0.000977,0.000000,-0.000122,-19.531250,-2.441406,-2.214401,85,0.000000,0
100,0,1773659934908,0,0.000977,0.000000,-0.000122,-14.648438,-8.544922,-76.904297,85,0.000000,0
100,0,1773659934910,0,0.001099,0.000000,-0.000244,-17.089844,-12.207031,-2.555286,85,0.000000,0
100,0,1773659934912,0,0.001099,0.000000,-0.000244,-24.414062,-13.427734,-2.661813,85,0.000000,0
100,0,1773659935007,0,0.001099,0.000000,-0.000244,-40.283203,-17.089844,-2.938781,85,0.000000,0
100,0,1773659935008,0,0.001099,0.000000,-0.000244,-51.269531,-19.531250,-3.173139,85,0.000000,0
100,0,1773659935011,0,0.001099,0.000000,-0.000244,-61.035156,-23.193359,-3.343582,85,0.000000,0
100,0,1773659935012,0,0.001221,0.000000,-0.000244,-85.449219,-28.076172,-3.641856,85,0.000000,0
100,0,1773659935055,0,0.001343,0.000000,-0.000122,-139.160156,-37.841797,-3.876214,85,0.000000,0
100,0,1773659935056,0,0.001709,-0.000122,-0.000122,-253.906250,-56.152344,-179.443359,85,0.000000,0
100,0,1773659935057,0,0.001709,-0.000366,-0.000122,-291.748047,-57.373047,-178.222656,85,0.000000,0
100,0,1773659935102,0,0.001709,-0.000854,-0.000244,-269.775391,-65.917969,-180.664062,85,0.000000,0
100,0,1773659935103,0,0.001465,-0.000488,-0.000488,-150.146484,-80.566406,-205.078125,85,0.000000,0
100,0,1773659935104,0,0.001465,0.000122,-0.000366,-101.318359,-83.007812,-214.843750,85,0.000000,0
100,0,1773659935151,0,0.001709,0.000488,-0.000244,-134.277344,-52.490234,-4.281014,85,0.000000,0
100,0,1773659935153,0,0.001343,0.000000,-0.000366,-213.623047,-26.855469,-3.300971,85,0.000000,0
100,0,1773659935153,0,0.001099,-0.000244,-0.000244,-249.023438,-41.503906,-2.938781,85,0.000000,0
100,0,1773659935203,0,0.000610,-0.000488,0.000610,-228.271484,4.882812,-48.828125,85,0.000000,0
100,0,1773659935205,0,0.000000,0.000366,-0.001221,-90.332031,-54.931641,-29.296875,85,0.000000,0
100,0,1773659935207,0,0.000000,0.000122,-0.000488,-139.160156,-129.394531,0.000000,85,0.000000,0
100,0,1773659935250,0,0.000366,-0.000610,0.000000,-246.582031,-96.435547,0.533981,85,0.000000,0
100,0,1773659935252,0,0.000244,-0.001221,0.000122,-108.642578,-93.994141,137.939453,85,0.000000,0
100,0,1773659935252,0,0.000366,-0.000732,0.000122,-43.945312,-89.111328,1.961435,85,0.000000,0
100,0,1773659935299,0,0.000488,0.000000,0.000000,-20.751953,-93.994141,2.728426,85,0.000000,0
100,0,1773659935300,0,0.000610,-0.000122,0.000122,-41.503906,-98.876953,249.023438,85,0.000000,0
100,0,1773659935301,0,0.000732,-0.000244,0.000244,-30.517578,-98.876953,268.554688,85,0.000000,0
100,0,1773659935348,0,0.000854,-0.000366,0.000366,3.662109,-96.435547,4.326322,85,0.000000,0
100,0,1773659935350,0,0.000977,-0.000122,0.000244,28.076172,-90.332031,4.965481,85,0.000000,0
100,0,1773659935350,0,0.001099,-0.000122,0.000366,35.400391,-80.566406,5.242450,85,0.000000,0
100,0,1773659935399,0,0.001099,-0.000122,0.000244,45.166016,-59.814453,5.796387,85,0.000000,0
100,0,1773659935399,0,0.001343,0.000000,0.000122,52.490234,-42.724609,6.179883,85,0.000000,0
100,0,1773659935400,0,0.001343,0.000000,0.000244,50.048828,-31.738281,6.392935,85,0.000000,0
100,0,1773659935496,0,0.001587,0.000000,0.000122,42.724609,-8.544922,450.439453,85,0.000000,0
100,0,1773659935497,0,0.001831,-0.000122,0.000122,41.503906,7.324219,7.138620,85,0.000000,0
100,0,1773659935499,0,0.001831,-0.000122,0.000122,54.931641,10.986328,7.245147,85,0.000000,0
100,0,1773659935500,0,0.001831,0.000000,0.000000,101.318359,25.634766,7.181231,85,0.000000,0
100,0,1773659935543,0,0.001831,0.001343,0.000000,85.449219,46.386719,383.300781,85,0.000000,0
100,0,1773659935545,0,0.001221,0.001831,-0.000244,9.765625,4.882812,1.876214,85,0.000000,0
100,0,1773659935546,0,0.000977,0.001831,-0.000122,-23.193359,14.648438,0.789644,85,0.000000,0
100,0,1773659935591,0,0.000854,0.001587,-0.000366,0.000000,1.220703,-57.373047,85,0.000000,0
100,0,1773659935592,0,0.000977,0.001343,-0.000244,6.103516,-3.662109,-190.429688,85,0.000000,0
100,0,1773659935596,0,0.001099,0.001099,-0.000122,10.986328,-9.765625,-5.026700,85,0.000000,0
100,0,1773659935638,0,0.001221,-0.001343,0.000000,-70.800781,-19.531250,-191.650391,85,0.000000,0
100,0,1773659935641,0,0.001343,-0.001831,0.000488,19.531250,12.207031,-164.794922,85,0.000000,0
100,0,1773659935642,0,0.001709,-0.000366,0.000977,155.029297,30.517578,-4.174488,85,0.000000,0
100,0,1773659935690,0,0.001831,0.001099,-0.000122,122.070312,-52.490234,-4.728426,85,0.000000,0
100,0,1773659935691,0,0.001709,0.000977,-0.000244,-50.048828,-57.373047,-233.154297,85,0.000000,0
100,0,1773659935692,0,0.000977,-0.000122,-0.000122,-76.904297,-73.242188,-4.707120,85,0.000000,0
100,0,1773659935737,0,0.000122,-0.000610,-0.000244,112.304688,-75.683594,-3.663161,85,0.000000,0
100,0,1773659935738,0,0.001343,0.001099,-0.000122,30.517578,-31.738281,-3.130529,85,0.000000,0
100,0,1773659935739,0,0.001221,0.000854,-0.000244,-68.359375,-25.634766,-3.045308,85,0.000000,0
100,0,1773659935785,0,0.000977,-0.000244,-0.000122,-89.111328,-3.662109,-2.576591,85,0.000000,0
100,0,1773659935786,0,0.000977,-0.000122,-0.000122,-56.152344,0.000000,-74.462891,85,0.000000,0
100,0,1773659935787,0,0.000854,-0.000122,-0.000122,-51.269531,0.000000,-2.193096,85,0.000000,0
100,0,1773659935834,0,0.000854,-0.000122,-0.000122,-15.869141,-2.441406,-2.001348,85,0.000000,0
100,0,1773659935836,0,0.000977,-0.000122,0.000000,0.000000,-8.544922,-1.916127,85,0.000000,0
100,0,1773659935836,0,0.000977,-0.000122,-0.000122,2.441406,-8.544922,-1.894822,85,0.000000,0
100,0,1773659935885,0,0.000854,0.000000,-0.000244,-9.765625,-2.441406,-1.809601,85,0.000000,0
100,0,1773659935886,0,0.000854,0.000000,-0.000244,-24.414062,3.662109,-1.724380,85,0.000000,0
100,0,1773659935887,0,0.000854,0.000000,-0.000244,-26.855469,4.882812,-1.724380,85,0.000000,0
100,0,1773659935932,0,0.000854,-0.000122,0.000000,-14.648438,2.441406,-1.766990,85,0.000000,0
100,0,1773659935933,0,0.000977,0.000000,-0.000122,9.765625,0.000000,-1.830906,85,0.000000,0
100,0,1773659935934,0,0.000977,0.000000,-0.000122,6.103516,2.441406,-1.873517,85,0.000000,0
100,0,1773659935981,0,0.000854,0.000000,-0.000244,-14.648438,-1.220703,-1.873517,85,0.000000,0
100,0,1773659935982,0,0.000977,0.000000,-0.000122,-25.634766,3.662109,-1.937433,85,0.000000,0
100,0,1773659935982,0,0.000977,0.000000,-0.000122,-20.751953,6.103516,-2.001348,85,0.000000,0
100,0,1773659936028,0,0.000977,0.000000,0.000000,-8.544922,17.089844,-67.138672,85,0.000000,0
100,0,1773659936031,0,0.000854,0.000000,-0.000122,3.662109,13.427734,-73.242188,85,0.000000,0
100,0,1773659936032,0,0.000854,0.000000,-0.000122,2.441406,7.324219,-75.683594,85,0.000000,0
100,0,1773659936078,0,0.000977,0.000000,-0.000122,-3.662109,3.662109,-83.007812,85,0.000000,0
100,0,1773659936081,0,0.000977,0.000000,0.000000,-4.882812,0.000000,-92.773438,85,0.000000,0
100,0,1773659936082,0,0.000977,0.000000,-0.000122,-6.103516,0.000000,-97.656250,85,0.000000,0
100,0,1773659936128,0,0.001099,0.000000,-0.000122,-7.324219,-1.220703,-109.863281,85,0.000000,0
100,0,1773659936128,0,0.001221,0.000000,-0.000122,-8.544922,-2.441406,-120.849609,85,0.000000,0
100,0,1773659936130,0,0.001221,0.000000,-0.000122,-10.986328,-2.441406,-3.237055,85,0.000000,0
100,0,1773659936224,0,0.001221,0.000000,0.000000,-19.531250,-3.662109,-3.556635,85,0.000000,0
100,0,1773659936225,0,0.001221,0.000000,0.000000,-26.855469,-6.103516,-3.833603,85,0.000000,0
100,0,1773659936226,0,0.001343,0.000000,0.000000,-30.517578,-6.103516,-4.004045,85,0.000000,0
100,0,1773659936227,0,0.001343,0.000000,-0.000122,-52.490234,-9.765625,-4.344931,85,0.000000,0
100,0,1773659936272,0,0.001587,0.000000,0.000000,-123.291016,-14.648438,-4.621899,86,0.000000,0
100,0,1773659936274,0,0.001831,-0.000854,-0.000244,-168.457031,-21.972656,-4.877563,86,0.000000,0
100,0,1773659936275,0,0.001709,-0.000854,-0.000488,-151.367188,-24.414062,-4.962784,86,0.000000,0
100,0,1773659936321,0,0.001465,-0.000244,-0.000610,-76.904297,-41.503906,-5.261058,86,0.000000,0
100,0,1773659936321,0,0.001709,0.000366,-0.000488,-62.255859,-21.972656,-4.685815,86,0.000000,0
100,0,1773659936322,0,0.001709,0.000122,-0.000366,-90.332031,-28.076172,-4.259709,86,0.000000,0
100,0,1773659936369,0,0.001465,0.000000,-0.000366,-80.566406,6.103516,-3.577940,86,0.000000,0
100,0,1773659936371,0,0.000854,-0.000732,0.000610,-162.353516,45.166016,-2.299623,86,0.000000,0
100,0,1773659936371,0,0.000488,-0.000244,0.000000,-54.931641,84.228516,-2.342233,86,0.000000,0
100,0,1773659936420,0,0.000366,0.000000,-0.000122,-41.503906,-26.855469,-1.276969,86,0.000000,0
100,0,1773659936422,0,0.000122,-0.000488,-0.000122,-98.876953,-32.958984,-0.062567,86,0.000000,0
100,0,1773659936424,0,0.000244,-0.000732,0.000000,-104.980469,-28.076172,0.533981,86,0.000000,0
100,0,1773659936470,0,0.000244,-0.000854,0.000122,0.000000,-3.662109,1.471413,86,0.000000,0
100,0,1773659936470,0,0.000366,-0.000122,0.000000,73.242188,-12.207031,2.366236,86,0.000000,0
100,0,1773659936471,0,0.000366,0.000000,0.000000,67.138672,-12.207031,2.792341,86,0.000000,0
100,0,1773659936516,0,0.000366,-0.000122,-0.000122,57.373047,-23.193359,263.671875,86,0.000000,0
100,0,1773659936517,0,0.000610,-0.000366,0.000000,89.111328,-26.855469,4.454154,86,0.000000,0
100,0,1773659936518,0,0.000732,-0.000366,0.000000,103.759766,-25.634766,334.472656,86,0.000000,0
100,0,1773659936565,0,0.000854,-0.000122,0.000000,117.187500,-23.193359,5.476808,86,0.000000,0
100,0,1773659936567,0,0.000977,0.000000,0.000000,114.746094,-19.531250,399.169922,86,0.000000,0
100,0,1773659936568,0,0.001099,0.000000,0.000000,114.746094,-15.869141,6.201188,86,0.000000,0
100,0,1773659936614,0,0.001343,0.000000,0.000000,115.966797,-4.882812,443.115234,86,0.000000,0
100,0,1773659936617,0,0.001709,0.000000,0.000000,120.849609,10.986328,7.181231,86,0.000000,0
100,0,1773659936618,0,0.001831,-0.000122,0.000000,125.732422,19.531250,7.415589,86,0.000000,0
100,0,1773659936663,0,0.001831,-0.000122,-0.000244,148.925781,32.958984,7.649947,86,0.000000,0
100,0,1773659936665,0,0.001831,0.000366,-0.000366,142.822266,57.373047,7.309063,86,0.000000,0
100,0,1773659936667,0,0.001831,0.000610,-0.000488,126.953125,62.255859,6.968178,86,0.000000,0
100,0,1773659936712,0,0.001709,0.001099,-0.000732,91.552734,28.076172,368.652344,86,0.000000,0
100,0,1773659936713,0,0.001343,0.001831,-0.000244,-50.048828,-1.220703,3.601943,86,0.000000,0
100,0,1773659936714,0,0.001221,0.001831,0.000000,-119.628906,3.662109,2.366236,86,0.000000,0
100,0,1773659936763,0,0.000732,0.001831,-0.000366,-104.980469,6.103516,-0.637810,86,0.000000,0
100,0,1773659936764,0,0.000977,0.001221,-0.000366,-31.738281,-4.882812,-178.222656,86,0.000000,0
100,0,1773659936767,0,0.001099,0.001099,-0.000244,-10.986328,-18.310547,-4.962784,86,0.000000,0
100,0,1773659936810,0,0.001709,0.000244,-0.000244,-54.931641,-45.166016,-5.175837,86,0.000000,0
100,0,1773659936811,0,0.001221,-0.001831,0.000366,-93.994141,-20.751953,-4.110572,86,0.000000,0
100,0,1773659936812,0,0.001465,-0.001831,0.001221,29.296875,18.310547,-181.884766,86,0.000000,0
100,0,1773659936858,0,0.001587,0.000366,0.000000,245.361328,-13.427734,-211.181641,86,0.000000,0
100,0,1773659936859,0,0.001831,0.001343,-0.000854,109.863281,-104.980469,-5.133226,86,0.000000,0
100,0,1773659936861,0,0.001831,0.001221,-0.001099,70.800781,-118.408203,-5.431500,86,0.000000,0
100,0,1773659936908,0,0.000610,-0.000366,0.000000,0.000000,-90.332031,-4.323625,86,0.000000,0
100,0,1773659936910,0,0.000610,0.000244,-0.000122,107.421875,-73.242188,-4.004045,86,0.000000,0
100,0,1773659936911,0,0.001343,0.001099,-0.000122,51.269531,-19.531250,-3.492719,86,0.000000,0
100,0,1773659936958,0,0.001099,0.000122,-0.000122,-119.628906,-2.441406,-119.628906,86,0.000000,0
100,0,1773659936960,0,0.000977,-0.000366,-0.000122,-40.283203,6.103516,-87.890625,86,0.000000,0
100,0,1773659936960,0,0.000854,-0.000122,-0.000122,-3.662109,3.662109,-2.427454,86,0.000000,0
100,0,1773659937005,0,0.000854,0.000000,-0.000122,25.634766,8.544922,-73.242188,86,0.000000,0
100,0,1773659937007,0,0.000977,0.000000,0.000000,29.296875,0.000000,-2.129180,86,0.000000,0
100,0,1773659937007,0,0.000977,0.000000,0.000000,35.400391,3.662109,-2.086570,86,0.000000,0
100,0,1773659937056,0,0.000854,0.000000,-0.000122,26.855469,15.869141,-2.065264,86,0.000000,0
100,0,1773659937056,0,0.000854,0.000000,-0.000244,-4.882812,14.648438,-56.152344,86,0.000000,0
100,0,1773659937057,0,0.000854,0.000000,-0.000122,-14.648438,10.986328,-53.710938,86,0.000000,0
100,0,1773659937101,0,0.000977,0.000000,0.000000,0.000000,6.103516,-1.916127,86,0.000000,0
100,0,1773659937104,0,0.000854,0.000000,0.000000,20.751953,0.000000,-1.937433,86,0.000000,0
100,0,1773659937105,0,0.000977,0.000000,0.000000,25.634766,-1.220703,-1.937433,86,0.000000,0
100,0,1773659937150,0,0.000977,0.000000,-0.000122,-1.220703,-2.441406,-1.958738,86,0.000000,0
100,0,1773659937151,0,0.000977,0.000000,-0.000122,-12.207031,-1.220703,-2.001348,86,0.000000,0
100,0,1773659937151,0,0.000977,0.000000,0.000000,-10.986328,-1.220703,-2.043959,86,0.000000,0
100,0,1773659937201,0,0.000977,0.000000,0.000000,-7.324219,-2.441406,-67.138672,86,0.000000,0
100,0,1773659937202,0,0.000977,0.000000,-0.000122,-8.544922,-4.882812,-2.278317,86,0.000000,0
100,0,1773659937203,0,0.000977,0.000000,-0.000122,-12.207031,-6.103516,-2.299623,86,0.000000,0
100,0,1773659937249,0,0.000977,0.000000,0.000000,-17.089844,-6.103516,-80.566406,86,0.000000,0
100,0,1773659937249,0,0.001099,0.000000,0.000000,-12.207031,-6.103516,-2.597897,86,0.000000,0
100,0,1773659937250,0,0.001099,0.000000,0.000000,-9.765625,-8.544922,-2.725729,86,0.000000,0
100,0,1773659937296,0,0.001221,0.000000,0.000000,-6.103516,-7.324219,-2.960087,86,0.000000,0
100,0,1773659937299,0,0.001221,0.000000,0.000000,-10.986328,-7.324219,-3.173139,86,0.000000,0
100,0,1773659937300,0,0.001221,0.000000,0.000000,-13.427734,-8.544922,-3.322276,86,0.000000,0
100,0,1773659937346,0,0.001221,0.000000,0.000000,-17.089844,-9.765625,-156.250000,86,0.000000,0
100,0,1773659937350,0,0.001343,0.000000,0.000000,-25.634766,-9.765625,-175.781250,86,0.000000,0
100,0,1773659937352,0,0.001343,0.000000,0.000000,-30.517578,-8.544922,-4.259709,86,0.000000,0
100,0,1773659937400,0,0.001465,0.000000,-0.000122,-56.152344,-13.427734,-207.519531,86,0.000000,0
100,0,1773659937400,0,0.001709,-0.000122,-0.000122,-97.656250,-15.869141,-222.167969,86,0.000000,0
100,0,1773659937402,0,0.001709,-0.000366,-0.000122,-117.187500,-17.089844,-230.712891,86,0.000000,0
100,0,1773659937443,0,0.001831,-0.000610,-0.000244,-158.691406,-20.751953,-234.375000,86,0.000000,0
100,0,1773659937444,0,0.001831,-0.000854,-0.000488,-184.326172,-24.414062,-5.090615,86,0.000000,0
100,0,1773659937445,0,0.001587,-0.000732,-0.000732,-145.263672,-31.738281,-5.175837,86,0.000000,0
100,0,1773659937491,0,0.001831,0.000122,-0.000610,-45.166016,-50.048828,-4.494067,86,0.000000,0
100,0,1773659937493,0,0.001831,0.000488,-0.000244,-58.593750,-28.076172,-4.408846,86,0.000000,0
100,0,1773659937495,0,0.001709,0.000122,-0.000488,-96.435547,-8.544922,-3.897519,86,0.000000,0
100,0,1773659937540,0,0.000854,-0.000366,0.000366,-126.953125,53.710938,-2.832255,86,0.000000,0
100,0,1773659937541,0,0.000366,0.000000,0.000000,-73.242188,-37.841797,-1.894822,86,0.000000,0
100,0,1773659937542,0,0.000488,-0.000244,-0.000366,-107.421875,-9.765625,-1.170442,86,0.000000,0
100,0,1773659937638,0,0.000122,-0.000854,0.000000,-124.511719,-26.855469,0.022654,86,0.000000,0
100,0,1773659937640,0,0.000122,-0.000610,0.000000,17.089844,-28.076172,0.981392,86,0.000000,0
100,0,1773659937641,0,0.000244,-0.000244,0.000000,43.945312,-34.179688,1.471413,86,0.000000,0
100,0,1773659937642,0,0.000244,-0.000122,0.000000,34.179688,-45.166016,2.387541,86,0.000000,0
100,0,1773659937687,0,0.000366,-0.000366,0.000000,74.462891,-62.255859,3.495416,86,0.000000,0
100,0,1773659937688,0,0.000732,-0.000122,0.000000,126.953125,-59.814453,4.922870,86,0.000000,0
100,0,1773659937688,0,0.000732,-0.000122,0.000000,125.732422,-56.152344,5.221144,86,0.000000,0
100,0,1773659937736,0,0.000977,0.000000,0.000000,113.525391,-45.166016,5.860303,86,0.000000,0
100,0,1773659937738,0,0.001099,-0.000122,0.000000,112.304688,-34.179688,6.371630,86,0.000000,0
100,0,1773659937738,0,0.001221,0.000000,0.000000,112.304688,-25.634766,6.627294,86,0.000000,0
100,0,1773659937833,0,0.001587,0.000000,0.000000,111.083984,-2.441406,7.117315,86,0.000000,0
100,0,1773659937834,0,0.001831,-0.000122,0.000000,117.187500,18.310547,7.543421,86,0.000000,0
100,0,1773659937836,0,0.001831,-0.000122,-0.000122,126.953125,25.634766,7.692557,86,0.000000,0
100,0,1773659937837,0,0.001831,0.000000,-0.000244,144.042969,40.283203,7.671252,86,0.000000,0
100,0,1773659937880,0,0.001831,0.001099,-0.000244,36.621094,70.800781,417.480469,86,0.000000,0
100,0,1773659937882,0,0.001221,0.001831,0.000000,-126.953125,9.765625,1.641856,86,0.000000,0
100,0,1773659937883,0,0.000732,0.001831,0.000000,-125.732422,6.103516,0.257012,86,0.000000,0
100,0,1773659937931,0,0.001099,0.001465,-0.000366,-48.828125,-2.441406,-107.421875,86,0.000000,0
100,0,1773659937932,0,0.000977,0.001099,-0.000244,-15.869141,-15.869141,-4.579288,86,0.000000,0
100,0,1773659937933,0,0.001099,0.000977,-0.000122,-17.089844,-25.634766,-5.346279,86,0.000000,0
100,0,1773659937981,0,0.001831,-0.000122,0.000000,-56.152344,-30.517578,-236.816406,86,0.000000,0
100,0,1773659937982,0,0.001099,-0.001831,0.000488,-10.986328,-18.310547,-184.326172,86,0.000000,0
100,0,1773659937983,0,0.001343,-0.001587,0.000977,129.394531,6.103516,-195.312500,86,0.000000,0
100,0,1773659938029,0,0.001587,0.000366,-0.000122,233.154297,-29.296875,-213.623047,86,0.000000,0
100,0,1773659938030,0,0.001831,0.001343,-0.001465,196.533203,-130.615234,-5.516721,86,0.000000,0
100,0,1773659938031,0,0.001831,0.001343,-0.000610,155.029297,-89.111328,-5.708469,86,0.000000,0
100,0,1773659938076,0,0.000000,-0.000244,-0.000122,-6.103516,-84.228516,-4.430151,86,0.000000,0
100,0,1773659938077,0,0.001099,0.000854,0.000000,45.166016,-37.841797,-3.705772,86,0.000000,0
100,0,1773659938078,0,0.001099,0.001099,-0.000122,-41.503906,-25.634766,-3.450108,86,0.000000,0
100,0,1773659938126,0,0.001099,-0.000122,-0.000122,-114.746094,-12.207031,-2.768339,86,0.000000,0
100,0,1773659938128,0,0.000854,-0.000122,-0.000244,-8.544922,-24.414062,-72.021484,86,0.000000,0
100,0,1773659938129,0,0.001099,0.000000,-0.000122,-7.324219,-12.207031,-63.476562,86,0.000000,0
100,0,1773659938173,0,0.000854,0.000000,-0.000122,1.220703,-14.648438,-53.710938,86,0.000000,0
100,0,1773659938176,0,0.000977,0.000000,-0.000122,-4.882812,-13.427734,-1.809601,86,0.000000,0
100,0,1773659938177,0,0.000977,0.000122,-0.000244,-29.296875,-6.103516,-42.724609,86,0.000000,0
100,0,1773659938224,0,0.000977,0.000000,-0.000122,-65.917969,2.441406,-1.596548,86,0.000000,0
100,0,1773659938275,0,0.000977,-0.000122,0.000000,-42.724609,2.441406,-1.575243,86,0.000000,0
100,0,1773659938275,0,0.000977,0.000000,0.000000,-29.296875,4.882812,-1.617853,86,0.000000,0
100,0,1773659938277,0,0.000977,0.000000,-0.000122,-19.531250,9.765625,-1.703074,86,0.000000,0
100,0,1773659938277,0,0.000977,0.000000,-0.000122,-25.634766,14.648438,-1.766990,86,0.000000,0
100,0,1773659938323,0,0.000854,0.000000,-0.000244,-18.310547,15.869141,-1.830906,86,0.000000,0
100,0,1773659938324,0,0.000854,0.000000,-0.000122,-20.751953,8.544922,-54.931641,86,0.000000,0
100,0,1773659938325,0,0.000854,0.000000,-0.000122,-18.310547,8.544922,-58.593750,86,0.000000,0
100,0,1773659938371,0,0.000977,0.000000,-0.000122,-12.207031,6.103516,-2.150486,86,0.000000,0
100,0,1773659938373,0,0.000977,0.000000,0.000000,-4.882812,3.662109,-2.257012,86,0.000000,0
100,0,1773659938375,0,0.000977,0.000000,0.000000,-3.662109,1.220703,-2.320928,86,0.000000,0
100,0,1773659938417,0,0.000977,0.000000,0.000000,0.000000,0.000000,-80.566406,86,0.000000,0
100,0,1773659938418,0,0.000977,0.000000,-0.000122,3.662109,-1.220703,-86.669922,86,0.000000,0
100,0,1773659938420,0,0.000977,0.000000,-0.000122,2.441406,-2.441406,-90.332031,86,0.000000,0
100,0,1773659938515,0,0.001099,0.000000,-0.000122,-3.662109,-3.662109,-2.789644,86,0.000000,0
100,0,1773659938516,0,0.001221,0.000000,0.000000,-12.207031,-2.441406,-3.045308,86,0.000000,0
100,0,1773659938516,0,0.001221,0.000000,0.000000,-13.427734,-3.662109,-3.151834,86,0.000000,0
100,0,1773659938568,0,0.001221,0.000000,0.000000,-18.310547,-7.324219,-3.535329,86,0.000000,0
100,0,1773659938570,0,0.001587,-0.000122,0.000000,-111.083984,-9.765625,-203.857422,86,0.000000,0
100,0,1773659938570,0,0.001587,-0.000244,-0.000122,-134.277344,-10.986328,-4.685815,86,0.000000,0
100,0,1773659938613,0,0.001831,-0.000610,-0.000244,-161.132812,-15.869141,-4.771036,86,0.000000,0
100,0,1773659938615,0,0.001709,-0.000854,-0.000366,-146.484375,-20.751953,-219.726562,86,0.000000,0
100,0,1773659938616,0,0.001465,-0.000854,-0.000488,-106.201172,-29.296875,-4.941479,86,0.000000,0
100,0,1773659938663,0,0.001587,0.000366,-0.000488,-19.531250,-37.841797,-5.069310,86,0.000000,0
100,0,1773659938665,0,0.001709,0.000122,-0.000366,-69.580078,-30.517578,-4.259709,86,0.000000,0
100,0,1773659938667,0,0.001709,0.000000,-0.000244,-62.255859,-17.089844,-169.677734,86,0.000000,0
100,0,1773659938710,0,0.001099,-0.000610,-0.000244,-141.601562,-3.662109,-2.640507,86,0.000000,0
100,0,1773659938713,0,0.000488,-0.000244,0.000000,-35.400391,89.111328,-2.299623,86,0.000000,0
100,0,1773659938713,0,0.000244,0.000122,-0.000732,8.544922,19.531250,-1.490022,86,0.000000,0
100,0,1773659938760,0,0.000244,0.000000,-0.000488,-58.593750,-9.765625,-0.552589,86,0.000000,0
100,0,1773659938761,0,0.000122,-0.000488,0.000000,-112.304688,-40.283203,83.007812,86,0.000000,0
100,0,1773659938762,0,0.000244,-0.000732,0.000122,-84.228516,-14.648438,0.960087,86,0.000000,0
100,0,1773659938858,0,0.000244,-0.000488,0.000000,23.193359,-19.531250,1.854909,86,0.000000,0
100,0,1773659938861,0,0.000366,0.000000,0.000000,45.166016,-24.414062,208.740234,86,0.000000,0
100,0,1773659938864,0,0.000366,0.000000,-0.000122,30.517578,-28.076172,236.816406,86,0.000000,0
100,0,1773659938866,0,0.000488,-0.000244,-0.000122,24.414062,-40.283203,280.761719,86,0.000000,0
100,0,1773659938905,0,0.000732,-0.000244,0.000000,68.359375,-48.828125,4.837649,86,0.000000,0
100,0,1773659938906,0,0.000977,-0.000122,0.000000,73.242188,-43.945312,6.030746,86,0.000000,0
100,0,1773659938907,0,0.001099,-0.000122,0.000000,78.125000,-40.283203,6.265103,86,0.000000,0
100,0,1773659938955,0,0.001465,0.000000,0.000000,86.669922,-28.076172,445.556641,86,0.000000,0
100,0,1773659938956,0,0.001831,0.000000,0.000000,95.214844,-12.207031,468.750000,86,0.000000,0
100,0,1773659938957,0,0.001831,-0.000122,0.000000,102.539062,-6.103516,7.372978,86,0.000000,0
100,0,1773659939005,0,0.001831,0.000000,-0.000244,115.966797,9.765625,7.479505,86,0.000000,0
100,0,1773659939006,0,0.001831,0.000488,-0.000488,93.994141,0.000000,7.181231,86,0.000000,0
100,0,1773659939007,0,0.001831,0.000977,0.000000,75.683594,47.607422,6.435546,86,0.000000,0
100,0,1773659939102,0,0.001831,0.001221,0.000000,1.220703,42.724609,336.914062,86,0.000000,0
100,0,1773659939103,0,0.000977,0.001831,-0.000488,-1.220703,15.869141,227.050781,86,0.000000,0
100,0,1773659939105,0,0.000854,0.001831,-0.000366,-64.697266,2.441406,1.641856,86,0.000000,0
100,0,1773659939149,0,0.000854,0.001709,0.000000,-122.070312,6.103516,-8.544922,86,0.000000,0
100,0,1773659939151,0,0.001221,-0.001831,-0.000122,-79.345703,-28.076172,-3.918825,86,0.000000,0
100,0,1773659939154,0,0.001465,-0.001831,0.001099,52.490234,12.207031,-4.195793,86,0.000000,0
100,0,1773659939197,0,0.001587,0.000244,0.000000,207.519531,-17.089844,-4.579288,86,0.000000,0
100,0,1773659939199,0,0.001831,0.001221,-0.001099,181.884766,-101.318359,-5.324974,86,0.000000,0
100,0,1773659939199,0,0.001831,0.001465,-0.000732,124.511719,-74.462891,-5.687163,86,0.000000,0
100,0,1773659939247,0,0.000244,-0.000488,0.000000,-31.738281,-80.566406,-192.871094,86,0.000000,0
100,0,1773659939248,0,0.000977,0.000610,-0.000122,80.566406,-46.386719,-3.705772,86,0.000000,0
100,0,1773659939249,0,0.001221,0.001343,0.000000,-32.958984,-13.427734,-134.277344,86,0.000000,0
100,0,1773659939296,0,0.001099,-0.000122,-0.000244,-146.484375,-17.089844,-2.768339,86,0.000000,0
100,0,1773659939344,0,0.000854,-0.000244,-0.000244,-3.662109,-19.531250,-2.193096,86,0.000000,0
100,0,1773659939345,0,0.000977,0.000000,-0.000244,1.220703,-13.427734,-64.697266,86,0.000000,0
100,0,1773659939346,0,0.000854,0.000000,0.000000,-2.441406,-8.544922,-1.980043,86,0.000000,0
100,0,1773659939445,0,0.000977,0.000000,-0.000122,0.000000,-13.427734,-45.166016,86,0.000000,0
100,0,1773659939446,0,0.000854,0.000000,-0.000122,-35.400391,-1.220703,-1.681769,86,0.000000,0
100,0,1773659939446,0,0.000854,0.000000,-0.000122,-28.076172,-3.662109,-1.703074,86,0.000000,0
100,0,1773659939447,0,0.000854,0.000000,-0.000122,-17.089844,-6.103516,-1.724380,86,0.000000,0
100,0,1773659939491,0,0.000854,0.000000,-0.000122,-10.986328,-3.662109,-1.766990,86,0.000000,0
100,0,1773659939493,0,0.000977,0.000000,-0.000122,-23.193359,4.882812,-51.269531,86,0.000000,0
100,0,1773659939495,0,0.000977,0.000000,-0.000122,-21.972656,7.324219,-53.710938,86,0.000000,0
100,0,1773659939538,0,0.000854,0.000000,-0.000122,-15.869141,3.662109,-2.043959,86,0.000000,0
100,0,1773659939540,0,0.000977,0.000000,0.000000,-8.544922,13.427734,-2.129180,86,0.000000,0
100,0,1773659939541,0,0.000854,0.000000,0.000000,-2.441406,12.207031,-2.171791,86,0.000000,0
100,0,1773659939587,0,0.000977,0.000000,-0.000122,8.544922,7.324219,-2.299623,86,0.000000,0
100,0,1773659939589,0,0.000977,0.000000,-0.000122,12.207031,6.103516,-2.406149,86,0.000000,0
100,0,1773659939589,0,0.000977,0.000000,-0.000122,12.207031,1.220703,-2.470065,86,0.000000,0
100,0,1773659939636,0,0.001099,0.000000,-0.000122,-3.662109,0.000000,-2.597897,86,0.000000,0
100,0,1773659939638,0,0.001099,0.000000,-0.000122,-13.427734,-2.441406,-2.768339,86,0.000000,0
100,0,1773659939640,0,0.001099,0.000000,-0.000122,-17.089844,-2.441406,-107.421875,86,0.000000,0
100,0,1773659939685,0,0.001099,0.000000,-0.000122,-9.765625,-6.103516,-3.151834,86,0.000000,0
100,0,1773659939687,0,0.001099,0.000000,-0.000122,-19.531250,-14.648438,-148.925781,86,0.000000,0
100,0,1773659939687,0,0.001221,0.000000,0.000000,-23.193359,-15.869141,-3.812298,86,0.000000,0
100,0,1773659939737,0,0.001221,0.000000,-0.000122,-32.958984,-20.751953,-4.238404,86,0.000000,0
100,0,1773659939738,0,0.001343,0.000000,-0.000244,-58.593750,-29.296875,-4.685815,86,0.000000,0
100,0,1773659939739,0,0.001465,0.000000,-0.000244,-81.787109,-35.400391,-4.877563,86,0.000000,0
100,0,1773659939783,0,0.001709,0.000000,-0.000122,-146.484375,-42.724609,-5.154531,86,0.000000,0
100,0,1773659939784,0,0.001831,-0.000366,-0.000244,-223.388672,-45.166016,-5.048005,86,0.000000,0
100,0,1773659939786,0,0.001831,-0.000488,-0.000366,-242.919922,-48.828125,-5.069310,86,0.000000,0
100,0,1773659939831,0,0.001709,-0.000854,-0.000610,-225.830078,-67.138672,-5.048005,86,0.000000,0
100,0,1773659939833,0,0.001343,0.000000,-0.000610,-155.029297,-72.021484,-4.856257,86,0.000000,0
100,0,1773659939834,0,0.001465,0.000244,-0.000610,-114.746094,-76.904297,-191.650391,86,0.000000,0
100,0,1773659939880,0,0.001465,0.000610,-0.000366,-97.656250,-78.125000,-152.587891,86,0.000000,0
100,0,1773659939881,0,0.001099,0.000000,-0.000610,-164.794922,-57.373047,-2.533981,86,0.000000,0
100,0,1773659939881,0,0.000977,-0.000366,0.000366,-223.388672,-32.958984,-1.830906,86,0.000000,0
100,0,1773659939932,0,0.000000,0.000000,-0.000366,-135.498047,-53.710938,-28.076172,86,0.000000,0
100,0,1773659939933,0,0.000122,-0.000488,-0.000122,-136.718750,-54.931641,-0.233010,86,0.000000,0
100,0,1773659939935,0,0.000122,-0.000977,0.000000,-115.966797,-62.255859,86.669922,86,0.000000,0
100,0,1773659939979,0,0.000244,-0.000854,0.000000,23.193359,-72.021484,1.428803,86,0.000000,0
100,0,1773659939980,0,0.000366,0.000000,0.000000,78.125000,-85.449219,2.344930,86,0.000000,0
100,0,1773659939981,0,0.000366,0.000000,0.000000,45.166016,-91.552734,2.749731,86,0.000000,0
100,0,1773659940030,0,0.000366,-0.000244,0.000000,28.076172,-108.642578,3.665858,86,0.000000,0
100,0,1773659940031,0,0.000610,-0.000244,0.000000,47.607422,-125.732422,4.305017,86,0.000000,0
100,0,1773659940032,0,0.000732,-0.000122,0.000244,46.386719,-125.732422,4.624596,86,0.000000,0
100,0,1773659940075,0,0.000977,0.000000,0.000366,24.414062,-112.304688,355.224609,86,0.000000,0
100,0,1773659940077,0,0.001099,0.000000,0.000488,10.986328,-98.876953,384.521484,86,0.000000,0
100,0,1773659940078,0,0.001221,0.000000,0.000366,8.544922,-92.773438,395.507812,86,0.000000,0
100,0,1773659940126,0,0.001465,0.000000,0.000366,23.193359,-64.697266,417.480469,86,0.000000,0
100,0,1773659940128,0,0.001587,0.000000,0.000366,36.621094,-41.503906,6.605988,86,0.000000,0
100,0,1773659940129,0,0.001709,0.000000,0.000366,37.841797,-26.855469,6.755125,86,0.000000,0
100,0,1773659940175,0,0.001831,0.000000,0.000122,53.710938,4.882812,6.946873,86,0.000000,0
100,0,1773659940176,0,0.001831,0.000122,0.000000,73.242188,31.738281,6.882957,86,0.000000,0
100,0,1773659940176,0,0.001831,0.000244,0.000000,75.683594,37.841797,6.755125,86,0.000000,0
100,0,1773659940220,0,0.001831,0.000732,0.000000,25.634766,61.035156,402.832031,86,0.000000,0
100,0,1773659940222,0,0.001831,0.000854,0.000000,-48.828125,79.345703,4.731122,86,0.000000,0
100,0,1773659940224,0,0.001465,0.000977,-0.000122,-68.359375,75.683594,4.006743,86,0.000000,0
100,0,1773659940270,0,0.000732,0.001587,-0.000244,-126.953125,41.503906,194.091797,86,0.000000,0
100,0,1773659940271,0,0.000732,0.001709,0.000000,-212.402344,39.062500,0.512676,86,0.000000,0
100,0,1773659940272,0,0.000732,0.001221,0.000000,-205.078125,36.621094,-0.637810,86,0.000000,0
100,0,1773659940321,0,0.000854,0.000854,-0.000122,-156.250000,35.400391,-98.876953,86,0.000000,0
100,0,1773659940322,0,0.000977,0.000610,-0.000122,-134.277344,32.958984,-162.353516,86,0.000000,0
100,0,1773659940322,0,0.001099,0.000488,-0.000122,-122.070312,28.076172,-4.281014,86,0.000000,0
100,0,1773659940368,0,0.001343,-0.000732,-0.000610,-140.380859,1.220703,-3.769688,86,0.000000,0
100,0,1773659940369,0,0.000854,-0.001831,-0.000122,-42.724609,-17.089844,-129.394531,86,0.000000,0
100,0,1773659940370,0,0.001221,-0.001221,0.000244,118.408203,15.869141,-3.492719,86,0.000000,0
100,0,1773659940417,0,0.001831,0.000000,-0.000122,126.953125,-9.765625,-3.790993,86,0.000000,0
100,0,1773659940418,0,0.001831,0.001343,-0.000366,213.623047,-50.048828,-5.026700,86,0.000000,0
100,0,1773659940419,0,0.001709,0.001343,0.000000,128.173828,-42.724609,-4.621899,86,0.000000,0
100,0,1773659940466,0,0.000122,-0.000244,-0.000366,14.648438,-48.828125,-3.790993,86,0.000000,0
100,0,1773659940467,0,0.000977,0.000732,0.000000,0.000000,-28.076172,-2.917476,86,0.000000,0
100,0,1773659940468,0,0.001099,0.000732,-0.000244,-74.462891,-30.517578,-100.097656,86,0.000000,0
100,0,1773659940515,0,0.000854,-0.000244,-0.000244,-79.345703,-26.855469,-74.462891,86,0.000000,0
100,0,1773659940516,0,0.000854,0.000000,-0.000244,-50.048828,-20.751953,-54.931641,86,0.000000,0
100,0,1773659940518,0,0.000977,-0.000122,-0.000366,-46.386719,-15.869141,-1.852211,86,0.000000,0
100,0,1773659940563,0,0.000854,0.000000,-0.000244,-23.193359,-8.544922,-37.841797,86,0.000000,0
100,0,1773659940565,0,0.000854,0.000000,-0.000244,-17.089844,-4.882812,-1.511327,86,0.000000,0
100,0,1773659940566,0,0.000854,-0.000122,-0.000244,-15.869141,-3.662109,-1.447411,86,0.000000,0
100,0,1773659940613,0,0.000854,0.000000,-0.000244,-24.414062,1.220703,-1.404800,86,0.000000,0
100,0,1773659940615,0,0.000854,0.000000,-0.000244,-23.193359,-2.441406,-19.531250,86,0.000000,0
100,0,1773659940616,0,0.000854,-0.000122,-0.000244,-18.310547,-6.103516,-1.319579,86,0.000000,0
100,0,1773659940661,0,0.000854,0.000000,-0.000244,-25.634766,-8.544922,-1.340885,86,0.000000,0
100,0,1773659940661,0,0.000854,0.000000,-0.000244,-26.855469,-10.986328,-1.340885,86,0.000000,0
100,0,1773659940662,0,0.000854,0.000000,-0.000366,-30.517578,-8.544922,-1.340885,86,0.000000,0
100,0,1773659940710,0,0.000854,-0.000122,-0.000244,-40.283203,-7.324219,-24.414062,86,0.000000,0
100,0,1773659940710,0,0.000854,0.000000,-0.000244,-26.855469,-9.765625,-1.511327,86,0.000000,0
100,0,1773659940712,0,0.000854,0.000000,-0.000244,-25.634766,-12.207031,-1.511327,86,0.000000,0
100,0,1773659940759,0,0.000854,0.000000,-0.000244,-24.414062,-13.427734,-1.553937,86,0.000000,0
100,0,1773659940760,0,0.000854,0.000000,-0.000244,-25.634766,-13.427734,-1.575243,86,0.000000,0
100,0,1773659940761,0,0.000854,0.000000,-0.000244,-26.855469,-14.648438,-1.575243,86,0.000000,0
100,0,1773659940805,0,0.000854,0.000000,-0.000244,-29.296875,-15.869141,-1.596548,86,0.000000,0
100,0,1773659940807,0,0.000977,0.000000,-0.000244,-29.296875,-18.310547,-37.841797,86,0.000000,0
100,0,1773659940807,0,0.000977,0.000000,-0.000244,-34.179688,-19.531250,-40.283203,86,0.000000,0
100,0,1773659940904,0,0.000977,0.000000,-0.000244,-43.945312,-20.751953,-46.386719,86,0.000000,0
100,0,1773659940906,0,0.000977,0.000000,-0.000244,-47.607422,-15.869141,-54.931641,86,0.000000,0
100,0,1773659940907,0,0.000977,0.000000,-0.000244,-45.166016,-7.324219,-62.255859,86,0.000000,0
100,0,1773659940907,0,0.000977,0.000000,-0.000244,-40.283203,-3.662109,-2.363539,86,0.000000,0
100,0,1773659940954,0,0.000977,0.000000,-0.000366,-39.062500,-6.103516,-2.661813,86,0.000000,0
100,0,1773659940956,0,0.001099,0.000000,-0.000366,-75.683594,-37.841797,-3.087918,86,0.000000,0
100,0,1773659940957,0,0.001099,0.000000,-0.000366,-90.332031,-42.724609,-3.173139,86,0.000000,0
100,0,1773659941004,0,0.001221,0.000000,-0.000244,-123.291016,-52.490234,-134.277344,86,0.000000,0
100,0,1773659941005,0,0.001221,0.000122,-0.000244,-169.677734,-68.359375,-144.042969,86,0.000000,0
100,0,1773659941006,0,0.001221,0.000122,-0.000244,-198.974609,-74.462891,-148.925781,86,0.000000,0
100,0,1773659941050,0,0.001465,0.000000,-0.000366,-281.982422,-90.332031,-3.684466,86,0.000000,0
100,0,1773659941051,0,0.001587,0.000000,-0.000366,-362.548828,-102.539062,-3.577940,86,0.000000,0
100,0,1773659941052,0,0.001709,-0.000244,-0.000488,-404.052734,-104.980469,-3.556635,86,0.000000,0
100,0,1773659941099,0,0.001587,-0.000854,-0.000732,-385.742188,-113.525391,-3.663161,86,0.000000,0
100,0,1773659941100,0,0.001587,-0.000244,-0.000488,-245.361328,-133.056641,-4.281014,86,0.000000,0
100,0,1773659941148,0,0.001709,0.000244,-0.000366,-211.181641,-126.953125,-185.546875,86,0.000000,0
100,0,1773659941149,0,0.001709,0.000854,-0.000122,-244.140625,-102.539062,-3.727077,86,0.000000,0
100,0,1773659941150,0,0.001221,0.000122,-0.000488,-308.837891,-101.318359,-2.960087,86,0.000000,0
100,0,1773659941151,0,0.000977,-0.000122,-0.000244,-341.796875,-107.421875,-2.257012,86,0.000000,0
100,0,1773659941247,0,0.000122,-0.000244,-0.000366,-247.802734,-63.476562,-32.958984,86,0.000000,0
100,0,1773659941248,0,0.000122,-0.000366,0.000122,-227.050781,-163.574219,-0.360841,86,0.000000,0
100,0,1773659941248,0,0.000366,-0.000732,0.000000,-231.933594,-130.615234,0.257012,86,0.000000,0
100,0,1773659941249,0,0.000366,-0.001099,0.000244,-151.367188,-144.042969,1.215750,86,0.000000,0
100,0,1773659941294,0,0.000488,-0.000122,0.000366,-63.476562,-150.146484,2.153183,86,0.000000,0
100,0,1773659941296,0,0.000610,-0.000366,0.000488,-18.310547,-156.250000,3.516721,86,0.000000,0
100,0,1773659941297,0,0.000732,-0.000366,0.000488,6.103516,-155.029297,3.814995,86,0.000000,0
100,0,1773659941343,0,0.000977,-0.000244,0.000488,32.958984,-139.160156,4.411543,86,0.000000,0
100,0,1773659941345,0,0.001099,0.000000,0.000488,20.751953,-124.511719,4.986786,86,0.000000,0
100,0,1773659941347,0,0.001221,0.000000,0.000488,3.662109,-109.863281,5.242450,86,0.000000,0
100,0,1773659941396,0,0.001343,0.000000,0.000610,-36.621094,-74.462891,383.300781,86,0.000000,0
100,0,1773659941400,0,0.001465,0.000000,0.000610,-50.048828,-42.724609,402.832031,86,0.000000,0
100,0,1773659941401,0,0.001465,0.000000,0.000610,-47.607422,-26.855469,411.376953,86,0.000000,0
100,0,1773659941443,0,0.001587,0.000000,0.000610,-34.179688,0.000000,429.687500,86,0.000000,0
100,0,1773659941444,0,0.001831,0.000000,0.000366,-30.517578,40.283203,443.115234,86,0.000000,0
100,0,1773659941445,0,0.001831,-0.000122,0.000244,-24.414062,51.269531,6.776431,86,0.000000,0
100,0,1773659941489,0,0.001831,0.000000,0.000000,19.531250,57.373047,439.453125,86,0.000000,0
100,0,1773659941490,0,0.001831,0.000244,0.000000,42.724609,56.152344,397.949219,86,0.000000,0
100,0,1773659941491,0,0.001831,0.000366,0.000000,45.166016,54.931641,5.881608,86,0.000000,0
100,0,1773659941537,0,0.001831,0.000854,0.000000,51.269531,63.476562,4.390238,86,0.000000,0
100,0,1773659941541,0,0.000977,0.001465,-0.000366,-2.441406,42.724609,200.195312,86,0.000000,0
100,0,1773659941543,0,0.000977,0.001709,-0.000366,-46.386719,42.724609,145.263672,86,0.000000,0
100,0,1773659941586,0,0.000732,0.001465,-0.000366,-72.021484,32.958984,-0.893474,86,0.000000,0
100,0,1773659941588,0,0.000977,0.001221,-0.000244,-59.814453,28.076172,-96.435547,86,0.000000,0
100,0,1773659941595,0,0.000977,0.001099,-0.000244,-59.814453,26.855469,-3.897519,86,0.000000,0
100,0,1773659941637,0,0.001221,0.000122,-0.001099,-83.007812,3.662109,-4.195793,86,0.000000,0
100,0,1773659941639,0,0.001099,-0.001465,-0.000610,-186.767578,-1.220703,-3.386192,86,0.000000,0
100,0,1773659941640,0,0.001099,-0.001343,0.000000,-157.470703,-2.441406,-3.535329,86,0.000000,0
100,0,1773659941683,0,0.001831,0.000000,0.000366,-37.841797,23.193359,-3.790993,86,0.000000,0
100,0,1773659941684,0,0.001709,0.000488,-0.000366,1.220703,-30.517578,-4.515373,86,0.000000,0
100,0,1773659941685,0,0.001831,0.000732,-0.000244,-3.662109,-25.634766,-4.600594,86,0.000000,0
100,0,1773659941733,0,0.000488,-0.000366,-0.000244,-40.283203,-47.607422,-4.153183,86,0.000000,0
100,0,1773659941735,0,0.000732,0.000122,0.000000,93.994141,-48.828125,-140.380859,86,0.000000,0
100,0,1773659941736,0,0.000977,0.000610,-0.000244,58.593750,-53.710938,-125.732422,86,0.000000,0
100,0,1773659941831,0,0.001099,0.000122,-0.000244,-58.593750,-24.414062,-2.810950,86,0.000000,0
100,0,1773659941831,0,0.000854,0.000000,-0.000244,-68.359375,-14.648438,-2.406149,86,0.000000,0
100,0,1773659941832,0,0.000977,0.000000,-0.000244,-78.125000,-9.765625,-2.257012,86,0.000000,0
100,0,1773659941832,0,0.000854,-0.000244,-0.000244,-43.945312,-15.869141,-2.022654,86,0.000000,0
100,0,1773659941880,0,0.000854,-0.000122,-0.000244,4.882812,-17.089844,-47.607422,86,0.000000,0
100,0,1773659941882,0,0.000854,0.000000,-0.000244,-25.634766,-1.220703,-1.596548,86,0.000000,0
100,0,1773659941883,0,0.000854,0.000000,-0.000244,-40.283203,0.000000,-1.553937,86,0.000000,0
100,0,1773659941928,0,0.000854,0.000000,-0.000122,-41.503906,-3.662109,-1.511327,86,0.000000,0
100,0,1773659941928,0,0.000854,0.000000,-0.000122,-29.296875,-8.544922,-1.532632,86,0.000000,0
100,0,1773659941929,0,0.000854,0.000000,-0.000244,-28.076172,-9.765625,-1.532632,86,0.000000,0
100,0,1773659941977,0,0.000854,0.000000,-0.000366,-40.283203,-6.103516,-1.532632,86,0.000000,0
100,0,1773659941978,0,0.000854,0.000000,-0.000244,-58.593750,-1.220703,-1.553937,86,0.000000,0
100,0,1773659941979,0,0.000854,0.000000,-0.000244,-58.593750,0.000000,-1.575243,86,0.000000,0
100,0,1773659942027,0,0.000854,0.000000,-0.000122,-45.166016,0.000000,-1.681769,86,0.000000,0
100,0,1773659942029,0,0.000977,0.000000,-0.000122,-34.179688,7.324219,-1.809601,86,0.000000,0
100,0,1773659942030,0,0.000854,0.000000,-0.000244,-29.296875,6.103516,-1.873517,86,0.000000,0
100,0,1773659942075,0,0.000854,0.000000,-0.000244,-26.855469,3.662109,-1.980043,86,0.000000,0
100,0,1773659942076,0,0.000854,0.000000,-0.000244,-20.751953,6.103516,-2.065264,86,0.000000,0
100,0,1773659942078,0,0.000854,0.000000,-0.000122,-15.869141,3.662109,-2.086570,86,0.000000,0
100,0,1773659942122,0,0.000977,0.000000,-0.000122,-8.544922,6.103516,-2.214401,86,0.000000,0
100,0,1773659942124,0,0.000854,0.000000,-0.000122,0.000000,0.000000,-2.320928,86,0.000000,0
100,0,1773659942125,0,0.000977,0.000000,-0.000244,0.000000,-2.441406,-2.384844,86,0.000000,0
100,0,1773659942222,0,0.000977,0.000000,-0.000244,-7.324219,-6.103516,-2.555286,86,0.000000,0
100,0,1773659942223,0,0.001099,0.000000,-0.000244,-19.531250,-9.765625,-102.539062,86,0.000000,0
100,0,1773659942224,0,0.001099,0.000000,-0.000244,-21.972656,-12.207031,-2.896171,86,0.000000,0
100,0,1773659942270,0,0.001221,0.000000,-0.000122,-39.062500,-15.869141,-3.173139,86,0.000000,0
