sessionState,sensorTimeMicros,phoneTimeMs,sampleNumber,aX,aY,aZ,gX,gY,gZ,batteryCharge,batteryVoltage,rssi
0,0,1773659920718,0,0.000854,-0.000122,-0.000122,18.310547,39.062500,26.855469,91,0.000000,0
0,0,1773659920719,0,0.000854,-0.000122,-0.000122,17.089844,39.062500,28.076172,91,0.000000,0
100,0,1773659920766,0,0.000854,-0.000122,-0.000122,18.310547,37.841797,29.296875,91,0.000000,0
100,0,1773659920769,0,0.000854,-0.000122,-0.000122,21.972656,39.062500,-1.532632,91,0.000000,0
100,0,1773659920772,0,0.000854,-0.000122,-0.000122,15.869141,39.062500,36.621094,91,0.000000,0
100,0,1773659920814,0,0.000977,-0.000122,0.000000,13.427734,42.724609,40.283203,91,0.000000,0
100,0,1773659920815,0,0.000977,-0.000244,-0.000122,18.310547,41.503906,47.607422,91,0.000000,0
100,0,1773659920816,0,0.000977,-0.000122,0.000000,20.751953,41.503906,-1.852211,91,0.000000,0
100,0,1773659920863,0,0.001099,-0.000122,0.000000,26.855469,45.166016,53.710938,91,0.000000,0
100,0,1773659920864,0,0.001099,-0.000122,0.000000,28.076172,48.828125,56.152344,91,0.000000,0
100,0,1773659920865,0,0.001099,-0.000122,0.000000,26.855469,51.269531,-2.022654,91,0.000000,0
100,0,1773659920912,0,0.001221,-0.000122,0.000000,20.751953,58.593750,64.697266,91,0.000000,0
100,0,1773659920912,0,0.001221,-0.000122,0.000000,21.972656,67.138672,68.359375,91,0.000000,0
100,0,1773659920913,0,0.001221,-0.000122,0.000000,25.634766,74.462891,-2.214401,91,0.000000,0
100,0,1773659920960,0,0.001221,-0.000122,-0.000122,34.179688,84.228516,72.021484,91,0.000000,0
100,0,1773659920961,0,0.001221,-0.000122,-0.000122,43.945312,90.332031,-2.299623,91,0.000000,0
100,0,1773659920961,0,0.001221,-0.000122,-0.000122,52.490234,95.214844,-2.320928,91,0.000000,0
100,0,1773659921009,0,0.001221,0.000000,-0.000122,61.035156,106.201172,76.904297,91,0.000000,0
100,0,1773659921009,0,0.001221,0.000000,-0.000244,73.242188,113.525391,79.345703,91,0.000000,0
100,0,1773659921011,0,0.001221,0.000000,-0.000244,81.787109,115.966797,81.787109,91,0.000000,0
100,0,1773659921106,0,0.001221,0.000000,-0.000488,92.773438,115.966797,-2.555286,91,0.000000,0
100,0,1773659921107,0,0.001221,0.000000,-0.000610,89.111328,120.849609,-2.874866,91,0.000000,0
100,0,1773659921108,0,0.001221,-0.000244,-0.000488,78.125000,112.304688,118.408203,91,0.000000,0
100,0,1773659921155,0,0.001709,-0.000488,-0.000122,85.449219,117.187500,-3.173139,91,0.000000,0
100,0,1773659921156,0,0.000488,0.000366,-0.000366,115.966797,72.021484,-0.701726,91,0.000000,0
100,0,1773659921157,0,0.000488,-0.000366,0.000122,157.470703,84.228516,7.324219,91,0.000000,0
100,0,1773659921204,0,0.000732,-0.000122,-0.000122,18.310547,17.089844,-1.617853,91,0.000000,0
100,0,1773659921205,0,0.000244,0.000610,-0.000488,13.427734,0.000000,-0.552589,91,0.000000,0
100,0,1773659921206,0,0.000244,0.000610,-0.000366,-13.427734,-10.986328,-0.147788,91,0.000000,0
100,0,1773659921253,0,0.000244,0.000122,-0.000244,-8.544922,-81.787109,-74.462891,91,0.000000,0
100,0,1773659921255,0,0.000244,0.000122,-0.000244,2.441406,-117.187500,0.725728,91,0.000000,0
100,0,1773659921255,0,0.000244,0.000122,-0.000244,0.000000,-135.498047,0.938781,91,0.000000,0
100,0,1773659921302,0,0.000366,0.000122,-0.000244,-28.076172,-187.988281,1.300971,91,0.000000,0
100,0,1773659921303,0,0.000610,0.000122,-0.000122,-42.724609,-225.830078,1.684466,91,0.000000,0
100,0,1773659921304,0,0.000610,0.000122,-0.000244,-45.166016,-242.919922,1.918825,91,0.000000,0
100,0,1773659921447,0,0.000854,0.000122,-0.000122,-57.373047,-273.437500,2.259709,91,0.000000,0
100,0,1773659921450,0,0.000977,0.000000,0.000000,-50.048828,-277.099609,2.557983,91,0.000000,0
100,0,1773659921451,0,0.001099,0.000000,0.000000,-41.503906,-275.878906,2.728426,91,0.000000,0
100,0,1773659921496,0,0.001221,0.000000,-0.000122,-41.503906,-288.085938,2.962784,91,0.000000,0
100,0,1773659921498,0,0.001831,0.000000,0.000000,-102.539062,-236.816406,2.643204,91,0.000000,0
100,0,1773659921498,0,0.001831,0.000000,0.000122,-122.070312,-213.623047,2.494067,91,0.000000,0
100,0,1773659921545,0,0.001831,-0.000122,0.000122,-181.884766,-170.898438,-168.457031,91,0.000000,0
100,0,1773659921546,0,0.001587,-0.000732,0.000000,-227.050781,-136.718750,-129.394531,91,0.000000,0
100,0,1773659921548,0,0.001465,-0.001099,0.000122,-201.416016,-124.511719,0.917476,91,0.000000,0
100,0,1773659921594,0,0.001221,-0.001221,0.000244,-79.345703,-73.242188,0.129180,91,0.000000,0
100,0,1773659921596,0,0.001221,-0.001221,0.000366,-12.207031,-37.841797,-0.786947,91,0.000000,0
100,0,1773659921597,0,0.001221,-0.001099,0.000366,19.531250,0.000000,-1.191748,91,0.000000,0
100,0,1773659921643,0,0.001221,-0.000732,0.000366,42.724609,53.710938,58.593750,91,0.000000,0
100,0,1773659921643,0,0.001221,-0.000610,0.000244,23.193359,83.007812,-2.981392,91,0.000000,0
100,0,1773659921646,0,0.001099,-0.000610,0.000244,19.531250,90.332031,134.277344,91,0.000000,0
100,0,1773659921691,0,0.001343,0.000610,-0.000854,57.373047,106.201172,103.759766,91,0.000000,0
100,0,1773659921692,0,0.001709,0.001587,0.000000,0.000000,89.111328,91.552734,91,0.000000,0
100,0,1773659921692,0,0.001831,0.000122,0.000122,-123.291016,113.525391,-3.599245,91,0.000000,0
100,0,1773659921741,0,0.001831,-0.000854,0.000000,-41.503906,69.580078,-4.259709,91,0.000000,0
100,0,1773659921742,0,0.001099,0.000122,-0.000244,-13.427734,67.138672,-4.323625,91,0.000000,0
100,0,1773659921743,0,0.000610,0.000244,-0.000366,-63.476562,47.607422,192.871094,91,0.000000,0
100,0,1773659921789,0,0.000610,-0.000244,-0.000488,-148.925781,12.207031,174.560547,91,0.000000,0
100,0,1773659921790,0,0.001343,-0.000488,-0.000244,-34.179688,64.697266,-3.258361,91,0.000000,0
100,0,1773659921791,0,0.000977,-0.000122,-0.000244,15.869141,78.125000,-2.768339,91,0.000000,0
100,0,1773659921886,0,0.000854,0.000000,-0.000122,37.841797,74.462891,-2.278317,91,0.000000,0
100,0,1773659921887,0,0.000977,-0.000122,0.000000,90.332031,85.449219,-1.894822,91,0.000000,0
100,0,1773659921889,0,0.000854,0.000000,-0.000122,98.876953,83.007812,-1.873517,91,0.000000,0
100,0,1773659921938,0,0.000732,0.000244,-0.000244,21.972656,42.724609,-2.107875,91,0.000000,0
100,0,1773659921938,0,0.000854,0.000000,-0.000244,-39.062500,13.427734,-2.342233,91,0.000000,0
100,0,1773659921938,0,0.000854,-0.000122,-0.000244,64.697266,50.048828,-1.617853,91,0.000000,0
100,0,1773659921984,0,0.000854,0.000122,-0.000244,48.828125,48.828125,43.945312,91,0.000000,0
100,0,1773659921985,0,0.000977,0.000000,-0.000122,-3.662109,51.269531,-2.001348,91,0.000000,0
100,0,1773659921986,0,0.000854,-0.000122,-0.000244,2.441406,56.152344,-2.001348,91,0.000000,0
100,0,1773659922033,0,0.000854,-0.000122,-0.000244,25.634766,61.035156,-1.916127,91,0.000000,0
100,0,1773659922037,0,0.000854,0.000000,-0.000244,29.296875,57.373047,52.490234,91,0.000000,0
100,0,1773659922038,0,0.000854,0.000000,-0.000122,21.972656,54.931641,53.710938,91,0.000000,0
100,0,1773659922082,0,0.000977,0.000000,-0.000122,9.765625,51.269531,-2.001348,91,0.000000,0
100,0,1773659922082,0,0.000977,-0.000122,-0.000122,14.648438,50.048828,56.152344,91,0.000000,0
100,0,1773659922083,0,0.000977,0.000000,-0.000122,19.531250,48.828125,56.152344,91,0.000000,0
100,0,1773659922130,0,0.000977,-0.000122,-0.000122,15.869141,47.607422,57.373047,91,0.000000,0
100,0,1773659922131,0,0.000977,-0.000244,-0.000122,29.296875,47.607422,-1.980043,91,0.000000,0
100,0,1773659922132,0,0.000977,-0.000122,-0.000122,36.621094,47.607422,56.152344,91,0.000000,0
100,0,1773659922228,0,0.000977,0.000000,-0.000122,43.945312,51.269531,-2.065264,91,0.000000,0
100,0,1773659922229,0,0.000977,0.000000,0.000000,37.841797,57.373047,70.800781,91,0.000000,0
100,0,1773659922230,0,0.000977,0.000000,-0.000122,31.738281,61.035156,76.904297,91,0.000000,0
100,0,1773659922277,0,0.001099,-0.000122,-0.000122,32.958984,72.021484,-2.597897,91,0.000000,0
100,0,1773659922277,0,0.001221,0.000000,-0.000122,35.400391,84.228516,-2.960087,91,0.000000,0
100,0,1773659922286,0,0.001343,-0.000122,-0.000244,51.269531,107.421875,-3.407498,91,0.000000,0
100,0,1773659922325,0,0.001465,-0.000122,-0.000244,84.228516,115.966797,-3.471413,91,0.000000,0
100,0,1773659922328,0,0.001587,0.000000,-0.000488,151.367188,139.160156,141.601562,91,0.000000,0
100,0,1773659922329,0,0.001709,0.000122,-0.000610,177.001953,141.601562,140.380859,91,0.000000,0
100,0,1773659922374,0,0.001831,0.000244,-0.000977,251.464844,158.691406,-3.258361,91,0.000000,0
100,0,1773659922375,0,0.001465,0.000488,-0.001343,203.857422,155.029297,-3.684466,91,0.000000,0
100,0,1773659922376,0,0.001465,0.000000,-0.000610,139.160156,123.291016,168.457031,91,0.000000,0
100,0,1773659922423,0,0.001831,-0.000610,-0.000122,169.677734,118.408203,-3.450108,91,0.000000,0
100,0,1773659922424,0,0.001587,0.000000,-0.000610,170.898438,107.421875,-2.406149,91,0.000000,0
100,0,1773659922424,0,0.001221,0.000000,-0.000732,148.925781,118.408203,56.152344,91,0.000000,0
100,0,1773659922471,0,0.000244,0.000366,-0.000122,140.380859,53.710938,-10.986328,91,0.000000,0
100,0,1773659922473,0,0.000732,-0.000854,0.000000,81.787109,15.869141,-2.874866,91,0.000000,0
100,0,1773659922473,0,0.000488,0.000000,-0.000244,85.449219,-2.441406,-1.404800,91,0.000000,0
100,0,1773659922521,0,0.000000,0.000854,-0.000488,65.917969,-14.648438,-0.019957,91,0.000000,0
100,0,1773659922521,0,0.000000,0.000610,-0.000244,-14.648438,-74.462891,0.683118,91,0.000000,0
100,0,1773659922569,0,0.000000,0.000366,-0.000122,-39.062500,-117.187500,0.768339,91,0.000000,0
100,0,1773659922570,0,0.000122,0.000122,-0.000244,-83.007812,-169.677734,1.024002,91,0.000000,0
100,0,1773659922571,0,0.000122,0.000122,-0.000244,-95.214844,-211.181641,1.428803,91,0.000000,0
100,0,1773659922618,0,0.000366,0.000122,-0.000122,-129.394531,-255.126953,1.705772,91,0.000000,0
100,0,1773659922619,0,0.000732,0.000000,0.000000,-146.484375,-285.644531,2.259709,91,0.000000,0
100,0,1773659922619,0,0.000854,0.000000,0.000000,-140.380859,-292.968750,2.430151,91,0.000000,0
100,0,1773659922666,0,0.001099,0.000000,0.000000,-126.953125,-288.085938,2.728426,91,0.000000,0
100,0,1773659922668,0,0.001343,-0.000244,0.000000,-98.876953,-275.878906,2.920173,91,0.000000,0
100,0,1773659922668,0,0.001343,-0.000244,0.000000,-86.669922,-273.437500,2.962784,91,0.000000,0
100,0,1773659922715,0,0.001343,-0.000122,0.000000,-76.904297,-278.320312,-230.712891,91,0.000000,0
100,0,1773659922716,0,0.001343,-0.000122,0.000000,-72.021484,-280.761719,3.111921,91,0.000000,0
100,0,1773659922764,0,0.001465,-0.000122,0.000000,-65.917969,-280.761719,3.175837,91,0.000000,0
100,0,1773659922765,0,0.001587,-0.000122,-0.000122,-61.035156,-281.982422,-241.699219,91,0.000000,0
100,0,1773659922766,0,0.001709,0.000000,0.000000,-63.476562,-277.099609,3.090615,91,0.000000,0
100,0,1773659922813,0,0.001709,0.000000,0.000000,-65.917969,-272.216797,-231.933594,91,0.000000,0
100,0,1773659922815,0,0.001831,0.000000,0.000000,-67.138672,-240.478516,-223.388672,91,0.000000,0
100,0,1773659922815,0,0.001831,0.000122,0.000000,-107.421875,-207.519531,2.515373,91,0.000000,0
100,0,1773659922861,0,0.001831,-0.000122,0.000122,-180.664062,-161.132812,-164.794922,91,0.000000,0
100,0,1773659922863,0,0.001465,-0.001343,0.000366,-183.105469,-98.876953,0.470065,91,0.000000,0
100,0,1773659922863,0,0.001221,-0.001587,0.000488,-129.394531,-69.580078,-0.105178,91,0.000000,0
100,0,1773659922910,0,0.001221,-0.001343,0.000610,-19.531250,-8.544922,-1.298274,91,0.000000,0
100,0,1773659922911,0,0.001221,-0.001099,0.000610,-13.427734,63.476562,-2.810950,91,0.000000,0
100,0,1773659922912,0,0.001343,-0.000977,0.000610,-21.972656,97.656250,135.498047,91,0.000000,0
100,0,1773659922959,0,0.001099,-0.000122,-0.000977,9.765625,104.980469,-3.130529,91,0.000000,0
100,0,1773659922960,0,0.000854,0.001831,-0.001709,117.187500,54.931641,-1.383495,91,0.000000,0
100,0,1773659922961,0,0.001587,0.001831,0.000122,40.283203,69.580078,-2.171791,91,0.000000,0
100,0,1773659923008,0,0.001831,-0.001465,-0.000366,-74.462891,100.097656,-3.663161,91,0.000000,0
100,0,1773659923009,0,0.001587,-0.000122,0.000000,137.939453,101.318359,174.560547,91,0.000000,0
100,0,1773659923010,0,0.001099,0.000366,-0.000244,61.035156,84.228516,-4.195793,91,0.000000,0
100,0,1773659923056,0,0.000488,0.000000,-0.000610,-119.628906,42.724609,-4.771036,91,0.000000,0
100,0,1773659923058,0,0.000977,-0.000488,-0.000122,-93.994141,39.062500,-4.600594,91,0.000000,0
100,0,1773659923059,0,0.001099,-0.000366,-0.000122,-29.296875,62.255859,-3.897519,91,0.000000,0
100,0,1773659923105,0,0.000732,-0.000122,-0.000244,14.648438,62.255859,-2.938781,91,0.000000,0
100,0,1773659923107,0,0.000854,-0.000122,-0.000244,42.724609,73.242188,-2.214401,91,0.000000,0
100,0,1773659923107,0,0.000977,-0.000122,-0.000122,63.476562,81.787109,56.152344,91,0.000000,0
100,0,1773659923155,0,0.000732,0.000122,-0.000122,46.386719,68.359375,48.828125,91,0.000000,0
100,0,1773659923155,0,0.000854,0.000122,-0.000122,-6.103516,31.738281,-1.958738,91,0.000000,0
100,0,1773659923203,0,0.000854,0.000000,-0.000122,-15.869141,25.634766,-1.958738,91,0.000000,0
100,0,1773659923204,0,0.000854,0.000000,-0.000244,-20.751953,24.414062,-1.894822,91,0.000000,0
100,0,1773659923206,0,0.000854,0.000000,-0.000244,-6.103516,25.634766,-1.830906,91,0.000000,0
100,0,1773659923252,0,0.000854,0.000000,-0.000244,0.000000,23.193359,-1.766990,91,0.000000,0
100,0,1773659923253,0,0.000977,-0.000122,-0.000244,48.828125,42.724609,-1.490022,91,0.000000,0
100,0,1773659923253,0,0.000854,0.000000,-0.000244,56.152344,43.945312,-1.511327,91,0.000000,0
100,0,1773659923300,0,0.000854,0.000000,-0.000122,8.544922,31.738281,-1.766990,91,0.000000,0
100,0,1773659923301,0,0.000854,0.000000,-0.000244,1.220703,29.296875,48.828125,91,0.000000,0
100,0,1773659923302,0,0.000854,0.000000,-0.000244,7.324219,31.738281,-1.852211,91,0.000000,0
100,0,1773659923349,0,0.000854,-0.000122,-0.000244,20.751953,39.062500,-1.830906,91,0.000000,0
100,0,1773659923351,0,0.000854,0.000000,-0.000122,17.089844,42.724609,-1.916127,91,0.000000,0
100,0,1773659923352,0,0.000977,0.000000,-0.000122,10.986328,42.724609,-1.980043,91,0.000000,0
100,0,1773659923398,0,0.000977,0.000000,-0.000122,3.662109,47.607422,-2.129180,91,0.000000,0
100,0,1773659923399,0,0.000977,0.000000,-0.000122,13.427734,61.035156,73.242188,91,0.000000,0
100,0,1773659923400,0,0.000977,0.000000,-0.000122,21.972656,72.021484,-2.363539,91,0.000000,0
100,0,1773659923447,0,0.000977,0.000000,-0.000122,21.972656,80.566406,-2.470065,91,0.000000,0
100,0,1773659923447,0,0.001099,-0.000122,-0.000244,36.621094,91.552734,-2.512676,91,0.000000,0
100,0,1773659923448,0,0.000977,-0.000244,-0.000244,36.621094,90.332031,-2.576591,91,0.000000,0
100,0,1773659923495,0,0.001221,0.000000,-0.000122,43.945312,89.111328,102.539062,91,0.000000,0
100,0,1773659923497,0,0.001221,0.000000,-0.000122,13.427734,93.994141,-3.066613,91,0.000000,0
100,0,1773659923498,0,0.001343,0.000000,-0.000122,10.986328,97.656250,-3.194445,91,0.000000,0
100,0,1773659923544,0,0.001343,-0.000244,-0.000244,30.517578,109.863281,-3.386192,91,0.000000,0
100,0,1773659923545,0,0.001465,-0.000244,-0.000244,69.580078,117.187500,-3.428803,91,0.000000,0
100,0,1773659923545,0,0.001465,-0.000244,-0.000244,96.435547,124.511719,-3.407498,91,0.000000,0
100,0,1773659923593,0,0.001709,0.000000,-0.000366,136.718750,140.380859,-3.407498,91,0.000000,0
100,0,1773659923595,0,0.001831,0.000122,-0.000610,183.105469,147.705078,-3.364887,91,0.000000,0
100,0,1773659923597,0,0.001831,0.000366,-0.000732,212.402344,161.132812,-3.322276,91,0.000000,0
100,0,1773659923691,0,0.001831,0.000854,-0.001343,178.222656,181.884766,153.808594,91,0.000000,0
100,0,1773659923692,0,0.001587,-0.000122,-0.000732,47.607422,133.056641,-4.131877,91,0.000000,0
100,0,1773659923693,0,0.001587,-0.000610,0.000000,79.345703,119.628906,-3.940130,91,0.000000,0
100,0,1773659923740,0,0.001709,0.000000,-0.000488,145.263672,161.132812,-2.704423,91,0.000000,0
100,0,1773659923743,0,0.000610,0.000244,-0.001099,54.931641,112.304688,-2.001348,91,0.000000,0
100,0,1773659923744,0,0.000366,-0.000244,-0.000244,-31.738281,0.000000,45.166016,91,0.000000,0
100,0,1773659923788,0,0.000000,0.000366,-0.000488,89.111328,-15.869141,-56.152344,91,0.000000,0
100,0,1773659923789,0,0.000000,0.000610,-0.000366,40.283203,-81.787109,-122.070312,91,0.000000,0
100,0,1773659923790,0,0.000000,0.000366,-0.000244,19.531250,-119.628906,1.215750,91,0.000000,0
100,0,1773659923837,0,0.000122,0.000122,-0.000244,-10.986328,-162.353516,1.492719,91,0.000000,0
100,0,1773659923886,0,0.000122,0.000244,-0.000122,-34.179688,-206.298828,1.876214,91,0.000000,0
100,0,1773659923887,0,0.000244,0.000244,-0.000122,-61.035156,-220.947266,-175.781250,91,0.000000,0
100,0,1773659923888,0,0.000488,0.000244,-0.000244,-117.187500,-264.892578,-194.091797,91,0.000000,0
100,0,1773659923935,0,0.000732,0.000122,-0.000122,-162.353516,-305.175781,-218.505859,91,0.000000,0
100,0,1773659923939,0,0.000977,0.000000,-0.000122,-172.119141,-316.162109,3.175837,91,0.000000,0
100,0,1773659923940,0,0.001343,0.000000,-0.000244,-163.574219,-306.396484,3.665858,91,0.000000,0
100,0,1773659923984,0,0.001465,-0.000122,-0.000244,-145.263672,-297.851562,3.964132,91,0.000000,0
100,0,1773659923988,0,0.001831,-0.000244,-0.000488,-81.787109,-314.941406,-303.955078,91,0.000000,0
100,0,1773659923989,0,0.001831,-0.000122,-0.000488,-80.566406,-327.148438,4.219796,91,0.000000,0
100,0,1773659924033,0,0.001831,-0.000854,-0.000244,-108.642578,-332.031250,3.814995,91,0.000000,0
100,0,1773659924035,0,0.001831,-0.000610,0.000488,-29.296875,-277.099609,3.516721,91,0.000000,0
100,0,1773659924037,0,0.001831,-0.000366,0.000732,-32.958984,-219.726562,3.239752,91,0.000000,0
100,0,1773659924081,0,0.001831,-0.000488,0.000122,-156.250000,-162.353516,-192.871094,91,0.000000,0
100,0,1773659924083,0,0.001587,-0.001831,0.000488,-144.042969,-100.097656,-117.187500,91,0.000000,0
100,0,1773659924086,0,0.001221,-0.001831,0.000854,-29.296875,-83.007812,-68.359375,91,0.000000,0
100,0,1773659924130,0,0.001343,-0.001343,0.001099,51.269531,-14.648438,41.503906,91,0.000000,0
100,0,1773659924131,0,0.001831,-0.000977,0.000732,63.476562,96.435547,-3.066613,91,0.000000,0
100,0,1773659924132,0,0.001587,0.000122,0.000610,15.869141,124.511719,-3.450108,91,0.000000,0
100,0,1773659924178,0,0.000732,0.001831,-0.001099,65.917969,65.917969,-1.916127,91,0.000000,0
100,0,1773659924180,0,0.001831,0.000854,0.000488,-225.830078,124.511719,156.250000,91,0.000000,0
100,0,1773659924182,0,0.001587,-0.000854,0.000244,-234.375000,70.800781,187.988281,91,0.000000,0
100,0,1773659924228,0,0.001587,-0.000366,0.000000,46.386719,73.242188,-4.366236,91,0.000000,0
100,0,1773659924228,0,0.000732,0.000488,-0.000610,-118.408203,17.089844,-5.111921,91,0.000000,0
100,0,1773659924231,0,0.000488,0.000000,-0.000610,-239.257812,-17.089844,-5.559332,91,0.000000,0
100,0,1773659924277,0,0.000977,-0.000854,-0.000366,-169.677734,15.869141,-4.067962,91,0.000000,0
100,0,1773659924278,0,0.000732,-0.000244,-0.000122,23.193359,87.890625,86.669922,91,0.000000,0
100,0,1773659924279,0,0.000610,-0.000122,-0.000122,37.841797,89.111328,-1.958738,91,0.000000,0
100,0,1773659924325,0,0.001221,-0.000366,0.000000,144.042969,96.435547,19.531250,91,0.000000,0
100,0,1773659924326,0,0.000977,0.000000,0.000000,191.650391,117.187500,10.986328,91,0.000000,0
100,0,1773659924327,0,0.000732,0.000488,0.000000,124.511719,81.787109,21.972656,91,0.000000,0
100,0,1773659924375,0,0.000732,0.000488,-0.000244,-50.048828,-12.207031,-2.022654,91,0.000000,0
100,0,1773659924377,0,0.000977,0.000000,-0.000366,-72.021484,-17.089844,75.683594,91,0.000000,0
100,0,1773659924379,0,0.000977,-0.000244,-0.000488,-48.828125,17.089844,53.710938,91,0.000000,0
100,0,1773659924423,0,0.000732,-0.000488,-0.000488,86.669922,61.035156,15.869141,91,0.000000,0
100,0,1773659924426,0,0.000854,0.000244,-0.000366,109.863281,75.683594,10.986328,91,0.000000,0
100,0,1773659924426,0,0.000854,0.000366,-0.000244,68.359375,61.035156,-1.532632,91,0.000000,0
100,0,1773659924472,0,0.000977,0.000366,-0.000122,-7.324219,45.166016,-2.043959,91,0.000000,0
100,0,1773659924476,0,0.000977,0.000000,-0.000122,-34.179688,42.724609,-2.171791,91,0.000000,0
100,0,1773659924476,0,0.000977,-0.000244,-0.000244,-14.648438,50.048828,64.697266,91,0.000000,0
100,0,1773659924522,0,0.000854,0.000000,-0.000244,23.193359,65.917969,58.593750,91,0.000000,0
100,0,1773659924525,0,0.000854,0.000000,-0.000122,10.986328,63.476562,61.035156,91,0.000000,0
100,0,1773659924526,0,0.000977,0.000000,-0.000122,8.544922,64.697266,-2.107875,91,0.000000,0
100,0,1773659924568,0,0.000977,0.000000,-0.000122,7.324219,65.917969,64.697266,91,0.000000,0
100,0,1773659924569,0,0.000977,0.000000,-0.000122,19.531250,65.917969,-2.086570,91,0.000000,0
100,0,1773659924571,0,0.000854,0.000000,-0.000122,17.089844,68.359375,-2.107875,91,0.000000,0
100,0,1773659924617,0,0.000977,-0.000122,-0.000122,8.544922,62.255859,-2.193096,91,0.000000,0
100,0,1773659924618,0,0.000977,0.000000,-0.000122,14.648438,67.138672,72.021484,91,0.000000,0
100,0,1773659924620,0,0.000977,0.000000,-0.000122,15.869141,68.359375,-2.299623,91,0.000000,0
100,0,1773659924666,0,0.001099,0.000000,-0.000122,14.648438,78.125000,84.228516,91,0.000000,0
100,0,1773659924668,0,0.001099,0.000000,0.000000,17.089844,84.228516,-2.619202,91,0.000000,0
100,0,1773659924668,0,0.001221,0.000000,0.000000,9.765625,90.332031,-2.704423,91,0.000000,0
100,0,1773659924715,0,0.001221,0.000000,-0.000122,3.662109,98.876953,-2.917476,91,0.000000,0
100,0,1773659924717,0,0.001221,-0.000244,-0.000244,9.765625,107.421875,119.628906,91,0.000000,0
100,0,1773659924718,0,0.001343,-0.000244,-0.000244,28.076172,109.863281,120.849609,91,0.000000,0
100,0,1773659924765,0,0.001465,-0.000122,-0.000244,76.904297,122.070312,-3.151834,91,0.000000,0
100,0,1773659924766,0,0.001587,0.000000,-0.000366,112.304688,142.822266,125.732422,91,0.000000,0
100,0,1773659924767,0,0.001709,0.000000,-0.000488,129.394531,146.484375,128.173828,91,0.000000,0
100,0,1773659924813,0,0.001831,0.000366,-0.000854,152.587891,163.574219,-3.300971,91,0.000000,0
100,0,1773659924813,0,0.001831,0.000488,-0.001221,151.367188,174.560547,-3.471413,91,0.000000,0
100,0,1773659924816,0,0.001709,0.000366,-0.001099,124.511719,173.339844,-3.663161,91,0.000000,0
100,0,1773659924862,0,0.001465,-0.000366,-0.000122,101.318359,111.083984,-3.705772,91,0.000000,0
100,0,1773659924865,0,0.001587,-0.000122,-0.000488,153.808594,155.029297,111.083984,91,0.000000,0
100,0,1773659924866,0,0.001465,0.000000,-0.000610,113.525391,144.042969,-2.619202,91,0.000000,0
100,0,1773659924910,0,0.000854,0.000244,-0.000977,72.021484,106.201172,47.607422,91,0.000000,0
100,0,1773659924911,0,0.000244,0.000122,0.000000,129.394531,76.904297,-1.021305,91,0.000000,0
100,0,1773659924912,0,0.000610,-0.000854,0.000122,93.994141,70.800781,-2.257012,91,0.000000,0
100,0,1773659925007,0,0.000488,-0.000244,-0.000244,79.345703,2.441406,30.517578,91,0.000000,0
100,0,1773659925008,0,0.000000,0.000854,-0.000366,109.863281,8.544922,-76.904297,91,0.000000,0
100,0,1773659925011,0,0.000000,0.000854,-0.000366,43.945312,-24.414062,-90.332031,91,0.000000,0
100,0,1773659925057,0,0.000000,0.000244,-0.000122,-41.503906,-117.187500,0.555286,91,0.000000,0
100,0,1773659925058,0,0.000488,0.000122,-0.000244,-191.650391,-241.699219,-179.443359,91,0.000000,0
100,0,1773659925060,0,0.000488,0.000000,-0.000244,-201.416016,-253.906250,-194.091797,91,0.000000,0
100,0,1773659925105,0,0.000732,0.000000,-0.000244,-202.636719,-278.320312,-229.492188,91,0.000000,0
100,0,1773659925107,0,0.000854,0.000000,-0.000244,-190.429688,-285.644531,-253.906250,91,0.000000,0
100,0,1773659925108,0,0.000977,0.000000,-0.000244,-183.105469,-279.541016,-266.113281,91,0.000000,0
100,0,1773659925153,0,0.001221,0.000000,-0.000366,-172.119141,-277.099609,3.964132,91,0.000000,0
100,0,1773659925156,0,0.001465,0.000000,-0.000366,-179.443359,-288.085938,-302.734375,91,0.000000,0
100,0,1773659925157,0,0.001587,0.000000,-0.000366,-184.326172,-295.410156,4.432848,91,0.000000,0
100,0,1773659925203,0,0.001831,-0.000244,-0.000488,-197.753906,-313.720703,-317.382812,91,0.000000,0
100,0,1773659925206,0,0.001831,-0.000732,-0.000488,-198.974609,-301.513672,-318.603516,91,0.000000,0
100,0,1773659925207,0,0.001831,-0.000732,-0.000488,-183.105469,-286.865234,-302.734375,91,0.000000,0
100,0,1773659925251,0,0.001831,-0.000732,0.000122,-159.912109,-251.464844,3.538026,91,0.000000,0
100,0,1773659925253,0,0.001831,-0.000732,0.000366,-173.339844,-162.353516,2.643204,91,0.000000,0
100,0,1773659925253,0,0.001709,-0.001465,0.000000,-187.988281,-137.939453,1.982740,91,0.000000,0
100,0,1773659925300,0,0.001099,-0.001831,0.000732,-37.841797,-103.759766,0.171791,91,0.000000,0
100,0,1773659925303,0,0.001343,-0.001099,0.000854,48.828125,-7.324219,-1.894822,91,0.000000,0
100,0,1773659925303,0,0.001343,-0.001343,0.000854,3.662109,29.296875,-2.725729,91,0.000000,0
100,0,1773659925349,0,0.001343,-0.001099,0.000488,4.882812,107.421875,-3.961435,91,0.000000,0
100,0,1773659925350,0,0.001343,0.001709,-0.000854,97.656250,163.574219,-2.832255,91,0.000000,0
100,0,1773659925352,0,0.000854,0.001831,-0.001099,39.062500,111.083984,-2.129180,91,0.000000,0
100,0,1773659925398,0,0.001709,0.000122,0.000854,-212.402344,83.007812,-3.982740,91,0.000000,0
100,0,1773659925402,0,0.001831,-0.001099,-0.000122,-42.724609,61.035156,198.974609,91,0.000000,0
100,0,1773659925402,0,0.001587,0.000000,-0.000244,9.765625,51.269531,206.298828,91,0.000000,0
100,0,1773659925495,0,0.001343,-0.000732,-0.000122,-311.279297,-31.738281,325.927734,91,0.000000,0
100,0,1773659925544,0,0.000732,-0.000366,-0.000244,-172.119141,57.373047,191.650391,91,0.000000,0
100,0,1773659925546,0,0.000122,-0.000732,-0.000854,-81.787109,32.958984,-4.217099,91,0.000000,0
100,0,1773659925548,0,0.001221,-0.000244,0.000000,23.193359,117.187500,-2.619202,91,0.000000,0
100,0,1773659925592,0,0.000977,0.000000,-0.000244,95.214844,93.994141,-1.958738,91,0.000000,0
100,0,1773659925593,0,0.000854,0.000244,-0.000122,-42.724609,31.738281,-2.043959,91,0.000000,0
100,0,1773659925595,0,0.000977,-0.000122,-0.000244,23.193359,34.179688,34.179688,91,0.000000,0
100,0,1773659925641,0,0.000854,-0.000244,-0.000244,54.931641,50.048828,18.310547,91,0.000000,0
100,0,1773659925642,0,0.000854,0.000366,-0.000122,23.193359,42.724609,34.179688,91,0.000000,0
100,0,1773659925645,0,0.000977,0.000244,0.000000,-15.869141,32.958984,41.503906,91,0.000000,0
100,0,1773659925690,0,0.000977,-0.000122,-0.000122,-12.207031,39.062500,43.945312,91,0.000000,0
100,0,1773659925691,0,0.000854,0.000000,-0.000244,6.103516,43.945312,-1.788296,91,0.000000,0
100,0,1773659925692,0,0.000854,0.000000,-0.000122,6.103516,48.828125,47.607422,91,0.000000,0
100,0,1773659925740,0,0.000977,0.000000,-0.000122,6.103516,51.269531,-1.894822,91,0.000000,0
100,0,1773659925741,0,0.000977,0.000000,0.000000,3.662109,51.269531,-1.937433,91,0.000000,0
100,0,1773659925743,0,0.000977,0.000000,0.000000,8.544922,51.269531,-1.937433,91,0.000000,0
100,0,1773659925836,0,0.000977,-0.000122,0.000000,20.751953,53.710938,51.269531,91,0.000000,0
100,0,1773659925838,0,0.000977,0.000000,0.000000,30.517578,57.373047,-1.894822,91,0.000000,0
100,0,1773659925838,0,0.000977,0.000000,0.000000,28.076172,58.593750,-1.916127,91,0.000000,0
100,0,1773659925885,0,0.000977,0.000000,0.000000,13.427734,64.697266,58.593750,91,0.000000,0
100,0,1773659925885,0,0.001099,0.000000,0.000000,1.220703,75.683594,68.359375,91,0.000000,0
100,0,1773659925886,0,0.001221,0.000122,0.000000,-9.765625,101.318359,91.552734,91,0.000000,0
100,0,1773659925934,0,0.001343,-0.000122,-0.000122,-10.986328,109.863281,-2.874866,91,0.000000,0
100,0,1773659925936,0,0.001465,-0.000122,-0.000244,41.503906,129.394531,-3.066613,91,0.000000,0
100,0,1773659925937,0,0.001587,0.000000,-0.000244,59.814453,135.498047,-3.109224,91,0.000000,0
100,0,1773659925983,0,0.001831,0.000000,-0.000244,90.332031,162.353516,-3.109224,91,0.000000,0
100,0,1773659925984,0,0.001831,0.000488,-0.000732,147.705078,191.650391,-3.002697,91,0.000000,0
100,0,1773659925985,0,0.001831,0.000732,-0.001099,133.056641,198.974609,-3.087918,91,0.000000,0
100,0,1773659926031,0,0.001587,0.000366,-0.001099,58.593750,187.988281,-3.514024,91,0.000000,0
100,0,1773659926033,0,0.001099,-0.000122,-0.000366,24.414062,147.705078,-3.386192,91,0.000000,0
100,0,1773659926033,0,0.001221,-0.000488,0.000000,45.166016,120.849609,-2.576591,91,0.000000,0
100,0,1773659926080,0,0.001343,-0.000244,-0.000366,58.593750,159.912109,-2.001348,91,0.000000,0
100,0,1773659926081,0,0.000732,0.000000,-0.000610,10.986328,122.070312,-1.490022,91,0.000000,0
100,0,1773659926082,0,0.000244,0.000610,-0.000488,9.765625,96.435547,-0.509978,91,0.000000,0
100,0,1773659926130,0,0.000366,-0.001099,0.000000,-35.400391,76.904297,-2.193096,91,0.000000,0
100,0,1773659926132,0,0.000366,-0.000122,-0.000488,-47.607422,40.283203,-0.339536,91,0.000000,0
100,0,1773659926133,0,0.000000,0.000366,-0.000610,-35.400391,31.738281,0.406149,91,0.000000,0
100,0,1773659926178,0,0.000000,0.000610,-0.000366,-84.228516,7.324219,1.492719,91,0.000000,0
100,0,1773659926178,0,0.000000,0.000122,-0.000244,-129.394531,-48.828125,1.769688,91,0.000000,0
100,0,1773659926181,0,0.000000,0.000000,-0.000366,-142.822266,-72.021484,-175.781250,91,0.000000,0
100,0,1773659926226,0,0.000122,0.000000,-0.000366,-163.574219,-111.083984,2.536678,91,0.000000,0
100,0,1773659926228,0,0.000244,0.000000,-0.000366,-174.560547,-147.705078,-227.050781,91,0.000000,0
100,0,1773659926229,0,0.000366,-0.000122,-0.000366,-185.546875,-161.132812,3.133226,91,0.000000,0
100,0,1773659926275,0,0.000610,-0.000244,-0.000488,-213.623047,-192.871094,-255.126953,91,0.000000,0
100,0,1773659926276,0,0.000854,-0.000366,-0.000488,-228.271484,-220.947266,-261.230469,91,0.000000,0
100,0,1773659926278,0,0.000977,-0.000366,-0.000610,-233.154297,-223.388672,-262.451172,91,0.000000,0
100,0,1773659926325,0,0.001221,-0.000488,-0.000610,-252.685547,-228.271484,-260.009766,91,0.000000,0
100,0,1773659926325,0,0.001343,-0.000488,-0.000732,-278.320312,-244.140625,3.452806,91,0.000000,0
100,0,1773659926326,0,0.001343,-0.000610,-0.000854,-290.527344,-255.126953,3.410195,91,0.000000,0
100,0,1773659926373,0,0.001587,-0.000854,-0.000977,-295.410156,-277.099609,3.324974,91,0.000000,0
100,0,1773659926376,0,0.001831,-0.000977,-0.001099,-286.865234,-290.527344,3.069310,91,0.000000,0
100,0,1773659926377,0,0.001831,-0.001099,-0.001099,-273.437500,-294.189453,2.920173,91,0.000000,0
100,0,1773659926421,0,0.001831,-0.001221,-0.000854,-200.195312,-286.865234,2.515373,91,0.000000,0
100,0,1773659926422,0,0.001831,-0.000854,-0.000366,-139.160156,-262.451172,1.812298,91,0.000000,0
100,0,1773659926425,0,0.001831,-0.000732,0.000000,-84.228516,-247.802734,1.748382,91,0.000000,0
100,0,1773659926471,0,0.001709,0.000000,0.000122,-113.525391,-148.925781,1.386192,91,0.000000,0
100,0,1773659926472,0,0.001465,-0.000732,0.000000,-236.816406,-159.912109,0.299623,91,0.000000,0
100,0,1773659926472,0,0.001465,-0.001221,0.000122,-251.464844,-147.705078,-0.105178,91,0.000000,0
100,0,1773659926520,0,0.001221,-0.001221,0.000366,-185.546875,-113.525391,3.662109,91,0.000000,0
100,0,1773659926523,0,0.001343,-0.001099,0.000610,-146.484375,-87.890625,67.138672,91,0.000000,0
100,0,1773659926523,0,0.001465,-0.001099,0.000610,-96.435547,-45.166016,83.007812,91,0.000000,0
100,0,1773659926567,0,0.001343,-0.000854,0.000488,-58.593750,40.283203,113.525391,91,0.000000,0
100,0,1773659926570,0,0.001343,-0.000610,0.000000,-59.814453,42.724609,139.160156,91,0.000000,0
100,0,1773659926570,0,0.001465,0.000122,0.000854,-46.386719,61.035156,135.498047,91,0.000000,0
100,0,1773659926616,0,0.001099,0.001831,-0.000244,-101.318359,107.421875,109.863281,91,0.000000,0
100,0,1773659926618,0,0.001343,0.001343,0.000366,-250.244141,37.841797,-3.854909,91,0.000000,0
100,0,1773659926618,0,0.001465,-0.000366,0.000488,-280.761719,19.531250,-4.281014,91,0.000000,0
100,0,1773659926665,0,0.001587,-0.000366,0.000122,-74.462891,17.089844,190.429688,91,0.000000,0
100,0,1773659926666,0,0.001099,0.000244,-0.000244,-133.056641,9.765625,216.064453,91,0.000000,0
100,0,1773659926668,0,0.000854,0.000000,-0.000488,-194.091797,-9.765625,-4.834952,91,0.000000,0
100,0,1773659926715,0,0.000732,-0.000610,-0.000366,-92.773438,30.517578,-3.790993,91,0.000000,0
100,0,1773659926716,0,0.000977,0.000000,-0.000244,17.089844,76.904297,-2.810950,91,0.000000,0
100,0,1773659926717,0,0.000732,0.000000,-0.000244,32.958984,76.904297,-2.533981,91,0.000000,0
100,0,1773659926810,0,0.000977,0.000000,0.000000,32.958984,74.462891,69.580078,91,0.000000,0
100,0,1773659926812,0,0.000854,0.000122,0.000000,-12.207031,47.607422,-2.150486,91,0.000000,0
100,0,1773659926815,0,0.000854,0.000244,0.000000,-24.414062,34.179688,65.917969,91,0.000000,0
100,0,1773659926860,0,0.000977,0.000122,0.000000,-75.683594,14.648438,73.242188,91,0.000000,0
100,0,1773659926861,0,0.000977,0.000244,0.000000,-15.869141,40.283203,41.503906,91,0.000000,0
100,0,1773659926863,0,0.000977,0.000000,0.000000,-26.855469,37.841797,40.283203,91,0.000000,0
100,0,1773659926909,0,0.000977,0.000000,0.000000,0.000000,42.724609,-1.490022,91,0.000000,0
100,0,1773659926910,0,0.000854,0.000000,-0.000122,3.662109,46.386719,-1.447411,91,0.000000,0
100,0,1773659926911,0,0.000854,0.000000,-0.000122,-1.220703,35.400391,-1.490022,91,0.000000,0
100,0,1773659926958,0,0.000977,0.000000,0.000000,-2.441406,40.283203,-1.490022,91,0.000000,0
100,0,1773659926958,0,0.000854,0.000000,0.000000,3.662109,37.841797,-1.490022,91,0.000000,0
100,0,1773659926960,0,0.000977,0.000000,0.000000,6.103516,37.841797,-1.532632,91,0.000000,0
100,0,1773659927007,0,0.000977,0.000000,0.000000,6.103516,40.283203,-1.575243,91,0.000000,0
100,0,1773659927008,0,0.000977,0.000000,0.000000,4.882812,42.724609,35.400391,91,0.000000,0
100,0,1773659927010,0,0.000977,0.000000,0.000000,7.324219,46.386719,36.621094,91,0.000000,0
100,0,1773659927055,0,0.000977,0.000000,0.000000,10.986328,51.269531,-1.681769,91,0.000000,0
100,0,1773659927056,0,0.000977,0.000000,0.000000,3.662109,53.710938,-1.766990,91,0.000000,0
100,0,1773659927058,0,0.000977,0.000000,0.000000,2.441406,58.593750,46.386719,91,0.000000,0
100,0,1773659927105,0,0.001099,0.000000,0.000000,-2.441406,64.697266,51.269531,91,0.000000,0
100,0,1773659927106,0,0.001099,0.000000,0.000000,-12.207031,74.462891,-2.001348,91,0.000000,0
100,0,1773659927107,0,0.001099,0.000000,0.000000,-18.310547,78.125000,-2.107875,91,0.000000,0
100,0,1773659927153,0,0.001221,0.000000,0.000000,-30.517578,92.773438,76.904297,91,0.000000,0
100,0,1773659927156,0,0.001221,0.000122,0.000000,-30.517578,98.876953,-2.533981,91,0.000000,0
100,0,1773659927157,0,0.001343,0.000122,0.000000,-45.166016,113.525391,93.994141,91,0.000000,0
100,0,1773659927201,0,0.001343,0.000000,-0.000122,-34.179688,120.849609,-2.725729,91,0.000000,0
100,0,1773659927204,0,0.001343,0.000000,-0.000244,-6.103516,139.160156,-2.768339,91,0.000000,0
100,0,1773659927206,0,0.001465,0.000000,-0.000366,6.103516,146.484375,-2.789644,91,0.000000,0
100,0,1773659927300,0,0.001587,0.000122,-0.000610,48.828125,163.574219,-2.832255,91,0.000000,0
100,0,1773659927303,0,0.001587,0.000244,-0.000854,79.345703,177.001953,-2.874866,91,0.000000,0
100,0,1773659927305,0,0.001587,0.000122,-0.001099,98.876953,169.677734,-2.874866,91,0.000000,0
100,0,1773659927348,0,0.001221,-0.000122,-0.000854,69.580078,156.250000,-3.258361,91,0.000000,0
100,0,1773659927348,0,0.000488,0.000488,-0.000244,28.076172,98.876953,-42.724609,91,0.000000,0
100,0,1773659927350,0,0.000732,-0.000610,0.000244,-3.662109,112.304688,-2.235707,91,0.000000,0
100,0,1773659927396,0,0.000854,0.000000,-0.000244,-100.097656,80.566406,-1.298274,91,0.000000,0
100,0,1773659927397,0,0.000244,0.000610,-0.000488,-108.642578,45.166016,-0.211704,91,0.000000,0
100,0,1773659927402,0,0.000122,0.000732,-0.000488,-147.705078,41.503906,-68.359375,91,0.000000,0
100,0,1773659927445,0,0.000122,0.000366,-0.000366,-230.712891,-2.441406,-107.421875,91,0.000000,0
100,0,1773659927446,0,0.000244,0.000122,-0.000366,-260.009766,-43.945312,1.343582,91,0.000000,0
100,0,1773659927446,0,0.000244,0.000122,-0.000366,-280.761719,-58.593750,1.620550,91,0.000000,0
100,0,1773659927495,0,0.000122,0.000000,-0.000488,-300.292969,-102.539062,-192.871094,91,0.000000,0
100,0,1773659927497,0,0.000366,-0.000122,-0.000610,-306.396484,-134.277344,-231.933594,91,0.000000,0
100,0,1773659927498,0,0.000488,-0.000244,-0.000610,-296.630859,-147.705078,3.346279,91,0.000000,0
100,0,1773659927543,0,0.000732,-0.000488,-0.000610,-256.347656,-162.353516,-278.320312,91,0.000000,0
100,0,1773659927546,0,0.000977,-0.000488,-0.000732,-227.050781,-172.119141,-292.968750,91,0.000000,0
100,0,1773659927546,0,0.001099,-0.000488,-0.000732,-220.947266,-174.560547,4.198491,91,0.000000,0
100,0,1773659927591,0,0.001221,-0.000366,-0.000732,-225.830078,-191.650391,4.241101,91,0.000000,0
100,0,1773659927593,0,0.001343,-0.000488,-0.000854,-239.257812,-216.064453,-297.851562,91,0.000000,0
100,0,1773659927596,0,0.001465,-0.000610,-0.000854,-241.699219,-229.492188,-294.189453,91,0.000000,0
100,0,1773659927640,0,0.001587,-0.000610,-0.000977,-251.464844,-262.451172,-281.982422,91,0.000000,0
100,0,1773659927641,0,0.001831,-0.000854,-0.000977,-257.568359,-281.982422,-256.347656,91,0.000000,0
100,0,1773659927642,0,0.001831,-0.000977,-0.000854,-249.023438,-286.865234,-240.478516,91,0.000000,0
100,0,1773659927688,0,0.001831,-0.001099,-0.000610,-196.533203,-278.320312,2.600594,91,0.000000,0
100,0,1773659927690,0,0.001831,-0.000977,0.000122,-67.138672,-211.181641,2.621899,91,0.000000,0
100,0,1773659927692,0,0.001831,-0.000488,0.000244,-30.517578,-168.457031,2.557983,91,0.000000,0
100,0,1773659927738,0,0.001709,-0.000854,0.000000,-114.746094,-137.939453,-161.132812,91,0.000000,0
100,0,1773659927741,0,0.001221,-0.001831,0.000000,-122.070312,-114.746094,-87.890625,91,0.000000,0
100,0,1773659927743,0,0.001221,-0.001831,0.000244,-65.917969,-109.863281,-46.386719,91,0.000000,0
100,0,1773659927786,0,0.001221,-0.001465,0.000732,-28.076172,-79.345703,46.386719,91,0.000000,0
100,0,1773659927788,0,0.001587,-0.001099,0.000488,47.607422,4.882812,-2.342233,91,0.000000,0
100,0,1773659927789,0,0.001709,-0.000366,0.000977,84.228516,72.021484,-2.555286,91,0.000000,0
100,0,1773659927835,0,0.001831,0.000000,0.001343,41.503906,131.835938,-3.130529,91,0.000000,0
100,0,1773659927835,0,0.001465,0.001831,-0.000854,45.166016,180.664062,-2.768339,91,0.000000,0
100,0,1773659927835,0,0.001343,0.001343,0.000610,-140.380859,80.566406,-4.408846,91,0.000000,0
100,0,1773659927884,0,0.001831,-0.001099,0.000122,-161.132812,58.593750,-5.474111,91,0.000000,0
100,0,1773659927887,0,0.000610,0.000488,-0.000488,-202.636719,10.986328,260.009766,91,0.000000,0
100,0,1773659927888,0,0.000366,0.000488,-0.000610,-289.306641,-31.738281,266.113281,91,0.000000,0
100,0,1773659927932,0,0.000854,-0.001465,-0.000610,-190.429688,18.310547,-4.834952,91,0.000000,0
100,0,1773659927936,0,0.001221,-0.000488,-0.000366,63.476562,97.656250,-2.853560,91,0.000000,0
100,0,1773659927936,0,0.000732,-0.000122,-0.000366,69.580078,109.863281,-2.427454,91,0.000000,0
100,0,1773659927980,0,0.001099,0.000000,0.000000,117.187500,115.966797,64.697266,91,0.000000,0
100,0,1773659928030,0,0.000854,0.000488,0.000000,-6.103516,57.373047,73.242188,91,0.000000,0
100,0,1773659928031,0,0.000854,0.000122,0.000122,-50.048828,36.621094,79.345703,91,0.000000,0
100,0,1773659928031,0,0.000977,0.000244,0.000000,-96.435547,4.882812,93.994141,91,0.000000,0
100,0,1773659928078,0,0.000977,-0.000244,-0.000122,-47.607422,14.648438,-2.363539,91,0.000000,0
100,0,1773659928081,0,0.000977,-0.000610,-0.000122,76.904297,50.048828,34.179688,91,0.000000,0
100,0,1773659928081,0,0.000854,0.000366,-0.000122,53.710938,40.283203,-1.703074,91,0.000000,0
100,0,1773659928128,0,0.000977,0.000122,0.000000,-24.414062,23.193359,-1.916127,91,0.000000,0
100,0,1773659928130,0,0.000854,0.000000,-0.000122,32.958984,41.503906,41.503906,91,0.000000,0
100,0,1773659928131,0,0.000854,0.000000,-0.000122,26.855469,39.062500,41.503906,91,0.000000,0
100,0,1773659928176,0,0.000977,0.000000,-0.000122,19.531250,41.503906,45.166016,91,0.000000,0
100,0,1773659928178,0,0.000854,0.000000,0.000000,10.986328,39.062500,-1.873517,91,0.000000,0
100,0,1773659928180,0,0.000977,0.000000,0.000000,10.986328,41.503906,51.269531,91,0.000000,0
100,0,1773659928226,0,0.000977,0.000000,-0.000122,14.648438,45.166016,-1.937433,91,0.000000,0
100,0,1773659928274,0,0.000977,-0.000122,0.000000,10.986328,47.607422,-1.980043,91,0.000000,0
100,0,1773659928276,0,0.000977,-0.000122,0.000000,17.089844,47.607422,54.931641,91,0.000000,0
100,0,1773659928277,0,0.000977,-0.000122,0.000000,23.193359,52.490234,-1.958738,91,0.000000,0
100,0,1773659928323,0,0.001099,0.000000,0.000000,26.855469,56.152344,-2.022654,91,0.000000,0
100,0,1773659928325,0,0.001221,0.000000,0.000000,19.531250,76.904297,-2.257012,91,0.000000,0
100,0,1773659928326,0,0.001099,0.000000,0.000000,21.972656,75.683594,80.566406,91,0.000000,0
100,0,1773659928371,0,0.001221,0.000244,0.000000,-3.662109,97.656250,100.097656,91,0.000000,0
100,0,1773659928375,0,0.001221,0.000000,0.000000,-19.531250,106.201172,112.304688,91,0.000000,0
100,0,1773659928376,0,0.001343,0.000000,-0.000122,-13.427734,115.966797,-3.066613,91,0.000000,0
100,0,1773659928420,0,0.001465,-0.000122,-0.000366,21.972656,126.953125,-3.173139,91,0.000000,0
100,0,1773659928421,0,0.001587,0.000000,-0.000366,67.138672,145.263672,-3.237055,91,0.000000,0
100,0,1773659928421,0,0.001587,0.000122,-0.000488,83.007812,156.250000,-3.300971,91,0.000000,0
100,0,1773659928518,0,0.001709,0.000244,-0.000732,120.849609,162.353516,-3.300971,91,0.000000,0
100,0,1773659928520,0,0.001587,0.000244,-0.001099,158.691406,175.781250,133.056641,91,0.000000,0
100,0,1773659928521,0,0.001343,0.000244,-0.001221,145.263672,166.015625,145.263672,91,0.000000,0
100,0,1773659928615,0,0.001831,-0.000610,0.000000,90.332031,106.201172,-3.876214,91,0.000000,0
100,0,1773659928616,0,0.001587,0.000244,-0.000732,124.511719,125.732422,-2.470065,91,0.000000,0
100,0,1773659928618,0,0.000977,-0.001099,0.000244,64.697266,74.462891,-2.832255,91,0.000000,0
100,0,1773659928665,0,0.000610,0.000000,-0.000366,29.296875,29.296875,28.076172,91,0.000000,0
100,0,1773659928665,0,0.000000,0.000000,-0.000244,-128.173828,-152.587891,1.173139,91,0.000000,0
100,0,1773659928667,0,0.000000,0.000000,-0.000244,-136.718750,-172.119141,1.450108,91,0.000000,0
100,0,1773659928713,0,0.000122,0.000122,-0.000244,-156.250000,-211.181641,2.025351,91,0.000000,0
100,0,1773659928715,0,0.000488,0.000000,-0.000244,-175.781250,-251.464844,2.515373,91,0.000000,0
100,0,1773659928717,0,0.000610,0.000000,-0.000244,-175.781250,-266.113281,2.728426,91,0.000000,0
100,0,1773659928761,0,0.000854,0.000000,-0.000122,-172.119141,-288.085938,-236.816406,91,0.000000,0
100,0,1773659928762,0,0.001099,0.000000,-0.000244,-158.691406,-290.527344,3.495416,91,0.000000,0
100,0,1773659928763,0,0.001221,-0.000122,-0.000244,-148.925781,-283.203125,3.644553,91,0.000000,0
100,0,1773659928810,0,0.001343,-0.000244,-0.000244,-133.056641,-275.878906,-278.320312,91,0.000000,0
100,0,1773659928811,0,0.001587,-0.000244,-0.000366,-97.656250,-285.644531,-283.203125,91,0.000000,0
100,0,1773659928812,0,0.001587,-0.000244,-0.000488,-79.345703,-295.410156,3.900217,91,0.000000,0
100,0,1773659928860,0,0.001831,-0.000244,-0.000488,-90.332031,-317.382812,3.580637,91,0.000000,0
100,0,1773659928860,0,0.001831,-0.000732,-0.000244,-108.642578,-322.265625,-241.699219,91,0.000000,0
100,0,1773659928862,0,0.001831,-0.000732,-0.000122,-91.552734,-312.500000,-230.712891,91,0.000000,0
100,0,1773659928907,0,0.001831,-0.000366,0.000244,-26.855469,-244.140625,-225.830078,91,0.000000,0
100,0,1773659928910,0,0.001831,-0.000366,0.000488,-92.773438,-166.015625,2.217099,91,0.000000,0
100,0,1773659928910,0,0.001831,-0.000854,0.000366,-146.484375,-137.939453,1.790993,91,0.000000,0
100,0,1773659928957,0,0.001465,-0.001831,0.000366,-91.552734,-102.539062,0.683118,91,0.000000,0
100,0,1773659928958,0,0.001343,-0.001587,0.000854,26.855469,-64.697266,4.882812,91,0.000000,0
100,0,1773659928960,0,0.001343,-0.001587,0.000977,50.048828,-29.296875,-1.852211,91,0.000000,0
100,0,1773659929005,0,0.001587,-0.001099,0.000732,72.021484,69.580078,114.746094,91,0.000000,0
100,0,1773659929006,0,0.001465,0.000000,0.000854,34.179688,102.539062,142.822266,91,0.000000,0
100,0,1773659929007,0,0.001465,0.000732,-0.000732,43.945312,162.353516,115.966797,91,0.000000,0
100,0,1773659929054,0,0.001831,0.001831,0.000000,-1.220703,152.587891,92.773438,91,0.000000,0
100,0,1773659929057,0,0.001831,-0.001343,0.000366,-314.941406,48.828125,-4.771036,91,0.000000,0
100,0,1773659929058,0,0.001831,-0.001831,0.000000,-114.746094,58.593750,-4.856257,91,0.000000,0
100,0,1773659929103,0,0.001099,0.000488,-0.000366,-9.765625,41.503906,-4.856257,91,0.000000,0
100,0,1773659929105,0,0.000000,0.000000,-0.000854,-236.816406,-4.882812,240.478516,91,0.000000,0
100,0,1773659929106,0,0.000610,-0.000854,-0.000244,-220.947266,-8.544922,-4.898868,91,0.000000,0
100,0,1773659929151,0,0.001099,-0.000732,-0.000244,40.283203,93.994141,-2.597897,91,0.000000,0
100,0,1773659929151,0,0.000732,-0.000122,0.000000,104.980469,98.876953,-1.745685,91,0.000000,0
100,0,1773659929153,0,0.000977,-0.000122,-0.000122,135.498047,98.876953,-1.575243,91,0.000000,0
100,0,1773659929200,0,0.000854,0.000122,-0.000122,147.705078,92.773438,29.296875,91,0.000000,0
100,0,1773659929201,0,0.000732,0.000488,-0.000122,3.662109,25.634766,56.152344,91,0.000000,0
100,0,1773659929202,0,0.000732,0.000366,-0.000122,-56.152344,0.000000,-2.384844,91,0.000000,0
100,0,1773659929248,0,0.000854,0.000000,-0.000366,-85.449219,-4.882812,-2.555286,91,0.000000,0
100,0,1773659929250,0,0.000977,-0.000488,-0.000366,-10.986328,21.972656,-1.916127,91,0.000000,0
100,0,1773659929254,0,0.000854,-0.000366,-0.000366,54.931641,43.945312,-1.575243,91,0.000000,0
100,0,1773659929298,0,0.000854,0.000000,-0.000244,95.214844,51.269531,-1.319579,91,0.000000,0
100,0,1773659929298,0,0.000854,0.000122,-0.000244,57.373047,47.607422,-1.575243,91,0.000000,0
100,0,1773659929300,0,0.000854,0.000122,-0.000122,32.958984,42.724609,-1.745685,91,0.000000,0
100,0,1773659929347,0,0.000977,0.000122,-0.000122,-23.193359,26.855469,-2.129180,91,0.000000,0
100,0,1773659929348,0,0.000977,-0.000244,-0.000244,-9.765625,37.841797,59.814453,91,0.000000,0
100,0,1773659929349,0,0.000977,-0.000244,-0.000244,23.193359,48.828125,-1.894822,91,0.000000,0
100,0,1773659929444,0,0.000854,-0.000122,-0.000244,58.593750,58.593750,-1.788296,91,0.000000,0
100,0,1773659929446,0,0.000977,0.000122,-0.000122,39.062500,62.255859,-1.958738,91,0.000000,0
100,0,1773659929447,0,0.000977,0.000122,-0.000122,25.634766,65.917969,-2.065264,91,0.000000,0
100,0,1773659929541,0,0.000977,0.000000,-0.000122,21.972656,65.917969,63.476562,91,0.000000,0
100,0,1773659929590,0,0.000977,-0.000122,-0.000122,32.958984,67.138672,70.800781,91,0.000000,0
100,0,1773659929592,0,0.001099,0.000000,-0.000122,21.972656,75.683594,-2.491370,91,0.000000,0
100,0,1773659929640,0,0.001099,-0.000122,-0.000122,21.972656,80.566406,-2.683118,91,0.000000,0
100,0,1773659929640,0,0.001221,0.000000,0.000000,18.310547,98.876953,114.746094,91,0.000000,0
100,0,1773659929642,0,0.001709,0.000122,-0.000610,198.974609,150.146484,126.953125,91,0.000000,0
100,0,1773659929687,0,0.001831,0.000244,-0.000854,229.492188,155.029297,126.953125,91,0.000000,0
100,0,1773659929690,0,0.001831,0.000610,-0.001221,256.347656,174.560547,136.718750,91,0.000000,0
100,0,1773659929691,0,0.001709,0.000000,-0.000732,64.697266,141.601562,198.974609,91,0.000000,0
100,0,1773659929737,0,0.001831,-0.000488,-0.000488,133.056641,161.132812,-3.790993,91,0.000000,0
100,0,1773659929741,0,0.001221,0.000122,-0.000854,73.242188,112.304688,-2.129180,91,0.000000,0
100,0,1773659929742,0,0.000488,0.000122,-0.000977,41.503906,79.345703,-2.257012,91,0.000000,0
100,0,1773659929785,0,0.000977,-0.000854,0.000610,179.443359,90.332031,-2.022654,91,0.000000,0
100,0,1773659929785,0,0.000488,-0.000488,-0.000366,-10.986328,3.662109,-2.555286,91,0.000000,0
100,0,1773659929786,0,0.000244,0.000122,-0.000488,45.166016,-4.882812,-0.914779,91,0.000000,0
100,0,1773659929834,0,-0.000122,0.000732,-0.000366,42.724609,-25.634766,0.235707,91,0.000000,0
100,0,1773659929836,0,0.000000,0.000366,-0.000122,-18.310547,-104.980469,-112.304688,91,0.000000,0
100,0,1773659929838,0,0.000000,0.000244,-0.000122,-41.503906,-141.601562,1.173139,91,0.000000,0
100,0,1773659929883,0,0.000122,0.000122,-0.000244,-76.904297,-184.326172,-145.263672,91,0.000000,0
100,0,1773659929885,0,0.000122,0.000122,-0.000244,-98.876953,-229.492188,-169.677734,91,0.000000,0
100,0,1773659929886,0,0.000244,0.000244,-0.000244,-122.070312,-250.244141,2.174488,91,0.000000,0
100,0,1773659929931,0,0.000610,0.000122,-0.000122,-155.029297,-284.423828,2.600594,91,0.000000,0
100,0,1773659929934,0,0.000854,0.000000,-0.000122,-158.691406,-305.175781,-223.388672,91,0.000000,0
100,0,1773659929935,0,0.000977,0.000000,-0.000122,-162.353516,-317.382812,3.026700,91,0.000000,0
100,0,1773659929980,0,0.001099,0.000000,-0.000122,-158.691406,-319.824219,-242.919922,91,0.000000,0
100,0,1773659929981,0,0.001343,-0.000122,-0.000122,-137.939453,-303.955078,-266.113281,91,0.000000,0
100,0,1773659929982,0,0.001343,-0.000122,-0.000122,-119.628906,-303.955078,3.772385,91,0.000000,0
100,0,1773659930028,0,0.001465,-0.000122,-0.000122,-90.332031,-307.617188,-283.203125,91,0.000000,0
100,0,1773659930031,0,0.001587,-0.000122,-0.000122,-58.593750,-313.720703,4.028048,91,0.000000,0
100,0,1773659930031,0,0.001709,0.000000,-0.000122,-57.373047,-321.044922,4.006743,91,0.000000,0
100,0,1773659930077,0,0.001831,-0.000244,0.000000,-80.566406,-314.941406,3.985437,91,0.000000,0
100,0,1773659930078,0,0.001831,-0.000122,0.000244,-46.386719,-257.568359,-269.775391,91,0.000000,0
100,0,1773659930080,0,0.001831,0.000000,0.000244,-73.242188,-231.933594,-256.347656,91,0.000000,0
100,0,1773659930126,0,0.001831,-0.000366,0.000366,-140.380859,-169.677734,2.579288,91,0.000000,0
100,0,1773659930128,0,0.001709,-0.000977,0.000366,-178.222656,-117.187500,1.620550,91,0.000000,0
100,0,1773659930130,0,0.001465,-0.001465,0.000488,-155.029297,-107.421875,1.151834,91,0.000000,0
100,0,1773659930175,0,0.001221,-0.001587,0.000854,-62.255859,-43.945312,-0.446063,91,0.000000,0
100,0,1773659930176,0,0.001465,-0.001221,0.000732,0.000000,25.634766,-1.617853,91,0.000000,0
100,0,1773659930177,0,0.001343,-0.001099,0.000610,1.220703,64.697266,72.021484,91,0.000000,0
100,0,1773659930223,0,0.001343,-0.000977,0.000488,-10.986328,120.849609,-3.492719,91,0.000000,0
100,0,1773659930226,0,0.000366,0.001221,-0.001831,126.953125,75.683594,50.048828,91,0.000000,0
100,0,1773659930227,0,0.000366,0.001831,-0.001831,196.533203,-28.076172,29.296875,91,0.000000,0
100,0,1773659930272,0,0.001831,-0.000244,0.000366,-97.656250,159.912109,-2.768339,91,0.000000,0
100,0,1773659930273,0,0.001831,-0.000854,-0.000610,4.882812,76.904297,-3.769688,91,0.000000,0
100,0,1773659930277,0,0.001831,-0.000488,0.000244,91.552734,120.849609,177.001953,91,0.000000,0
100,0,1773659930321,0,0.001099,0.000244,-0.000244,30.517578,92.773438,-4.323625,91,0.000000,0
100,0,1773659930324,0,0.000366,-0.000122,-0.000488,-131.835938,39.062500,-4.494067,91,0.000000,0
100,0,1773659930326,0,0.000732,-0.000366,0.000000,-120.849609,21.972656,183.105469,91,0.000000,0
100,0,1773659930371,0,0.000977,-0.000366,-0.000244,-9.765625,46.386719,-3.002697,91,0.000000,0
100,0,1773659930372,0,0.000854,-0.000244,-0.000244,47.607422,61.035156,-2.320928,91,0.000000,0
100,0,1773659930373,0,0.000854,-0.000122,-0.000244,81.787109,73.242188,-2.001348,91,0.000000,0
100,0,1773659930418,0,0.000854,0.000122,-0.000244,93.994141,76.904297,-1.490022,91,0.000000,0
100,0,1773659930421,0,0.000854,0.000122,-0.000244,39.062500,39.062500,32.958984,91,0.000000,0
100,0,1773659930422,0,0.000854,0.000000,-0.000244,30.517578,31.738281,-1.575243,91,0.000000,0
100,0,1773659930468,0,0.000854,0.000000,-0.000244,23.193359,24.414062,-1.575243,91,0.000000,0
100,0,1773659930470,0,0.000854,0.000000,-0.000244,23.193359,23.193359,26.855469,91,0.000000,0
100,0,1773659930471,0,0.000854,-0.000122,-0.000366,41.503906,29.296875,-1.383495,91,0.000000,0
100,0,1773659930516,0,0.000854,0.000000,-0.000366,62.255859,36.621094,12.207031,91,0.000000,0
100,0,1773659930516,0,0.000854,0.000000,-0.000366,53.710938,39.062500,15.869141,91,0.000000,0
100,0,1773659930518,0,0.000854,0.000000,-0.000244,41.503906,36.621094,-1.362190,91,0.000000,0
100,0,1773659930565,0,0.000854,0.000000,-0.000244,20.751953,36.621094,-1.490022,91,0.000000,0
100,0,1773659930566,0,0.000854,0.000000,-0.000244,23.193359,41.503906,32.958984,91,0.000000,0
100,0,1773659930567,0,0.000854,0.000000,-0.000244,29.296875,43.945312,35.400391,91,0.000000,0
100,0,1773659930615,0,0.000854,0.000000,-0.000244,21.972656,45.166016,-1.788296,91,0.000000,0
100,0,1773659930616,0,0.000854,0.000000,-0.000244,12.207031,50.048828,-1.980043,91,0.000000,0
100,0,1773659930617,0,0.000854,0.000122,-0.000244,2.441406,53.710938,-2.086570,91,0.000000,0
100,0,1773659930662,0,0.000977,0.000000,-0.000244,-9.765625,57.373047,-2.320928,91,0.000000,0
100,0,1773659930664,0,0.000977,0.000000,-0.000122,-14.648438,63.476562,-2.470065,91,0.000000,0
100,0,1773659930665,0,0.000977,0.000000,-0.000122,-14.648438,68.359375,-2.533981,91,0.000000,0
100,0,1773659930711,0,0.000977,0.000000,-0.000122,-1.220703,90.332031,93.994141,91,0.000000,0
100,0,1773659930714,0,0.000977,0.000000,-0.000122,4.882812,97.656250,100.097656,91,0.000000,0
100,0,1773659930716,0,0.000977,0.000000,-0.000122,9.765625,103.759766,103.759766,91,0.000000,0
100,0,1773659930760,0,0.001099,0.000000,-0.000122,10.986328,103.759766,115.966797,91,0.000000,0
100,0,1773659930761,0,0.001221,0.000000,-0.000122,-6.103516,103.759766,130.615234,91,0.000000,0
100,0,1773659930763,0,0.001221,-0.000122,-0.000122,-2.441406,109.863281,135.498047,91,0.000000,0
100,0,1773659930809,0,0.001343,-0.000244,-0.000244,13.427734,113.525391,-3.514024,91,0.000000,0
100,0,1773659930810,0,0.001343,-0.000244,-0.000244,47.607422,120.849609,-3.577940,91,0.000000,0
100,0,1773659930811,0,0.001465,-0.000122,-0.000244,67.138672,128.173828,146.484375,91,0.000000,0
100,0,1773659930906,0,0.001587,0.000000,-0.000244,118.408203,137.939453,145.263672,91,0.000000,0
100,0,1773659930906,0,0.001831,0.000000,-0.000610,181.884766,150.146484,-3.514024,91,0.000000,0
100,0,1773659930908,0,0.001831,0.000244,-0.000854,208.740234,158.691406,-3.492719,91,0.000000,0
100,0,1773659930956,0,0.001831,0.000732,-0.001343,214.843750,181.884766,-3.684466,91,0.000000,0
100,0,1773659930956,0,0.001709,-0.000244,-0.000244,50.048828,129.394531,-4.217099,91,0.000000,0
100,0,1773659930957,0,0.001221,0.000000,-0.000610,93.994141,136.718750,-2.193096,91,0.000000,0
100,0,1773659931005,0,0.000122,0.000610,-0.000122,37.841797,42.724609,10.986328,91,0.000000,0
100,0,1773659931005,0,0.000244,-0.000244,-0.000122,-48.828125,-7.324219,61.035156,91,0.000000,0
100,0,1773659931006,0,0.000244,0.000244,-0.000488,58.593750,-4.882812,-0.254315,91,0.000000,0
100,0,1773659931053,0,-0.000122,0.000732,-0.000488,84.228516,-50.048828,-107.421875,91,0.000000,0
100,0,1773659931056,0,0.000000,0.000366,-0.000244,63.476562,-129.394531,-112.304688,91,0.000000,0
100,0,1773659931057,0,0.000000,0.000244,-0.000244,41.503906,-161.132812,-117.187500,91,0.000000,0
100,0,1773659931101,0,0.000122,0.000244,-0.000244,32.958984,-207.519531,1.535329,91,0.000000,0
100,0,1773659931102,0,0.000244,0.000366,-0.000122,4.882812,-238.037109,1.833603,91,0.000000,0
100,0,1773659931106,0,0.000366,0.000488,-0.000122,-26.855469,-257.568359,1.982740,91,0.000000,0
100,0,1773659931150,0,0.000610,0.000366,0.000000,-85.449219,-289.306641,2.451457,91,0.000000,0
100,0,1773659931151,0,0.000732,0.000244,0.000000,-117.187500,-318.603516,2.877563,91,0.000000,0
100,0,1773659931153,0,0.000854,0.000244,0.000000,-126.953125,-332.031250,-234.375000,91,0.000000,0
100,0,1773659931198,0,0.001221,0.000122,-0.000122,-122.070312,-333.251953,-260.009766,91,0.000000,0
100,0,1773659931201,0,0.001343,0.000122,-0.000244,-115.966797,-324.707031,3.857606,91,0.000000,0
100,0,1773659931202,0,0.001587,0.000000,-0.000244,-109.863281,-327.148438,4.028048,91,0.000000,0
100,0,1773659931247,0,0.001831,0.000000,-0.000244,-96.435547,-333.251953,4.219796,91,0.000000,0
100,0,1773659931250,0,0.001831,-0.000244,-0.000122,-142.822266,-333.251953,4.177185,91,0.000000,0
100,0,1773659931251,0,0.001831,-0.000610,0.000000,-157.470703,-316.162109,4.177185,91,0.000000,0
100,0,1773659931297,0,0.001831,-0.000854,0.000000,-108.642578,-277.099609,-279.541016,91,0.000000,0
100,0,1773659931298,0,0.001831,-0.000732,0.000488,-109.863281,-206.298828,2.834952,91,0.000000,0
100,0,1773659931299,0,0.001831,-0.000610,0.000488,-129.394531,-166.015625,2.430151,91,0.000000,0
100,0,1773659931345,0,0.001587,-0.001831,0.000366,-191.650391,-109.863281,-130.615234,91,0.000000,0
100,0,1773659931346,0,0.001099,-0.001831,0.000854,-62.255859,-51.269531,-0.488673,91,0.000000,0
100,0,1773659931347,0,0.001343,-0.001831,0.001099,8.544922,-14.648438,-1.404800,91,0.000000,0
100,0,1773659931398,0,0.001465,-0.001221,0.000854,26.855469,85.449219,126.953125,91,0.000000,0
100,0,1773659931402,0,0.001587,0.000244,0.000732,-2.441406,126.953125,147.705078,91,0.000000,0
100,0,1773659931405,0,0.001099,0.000977,-0.001709,64.697266,141.601562,83.007812,91,0.000000,0
100,0,1773659931443,0,0.001831,0.001831,0.000244,-26.855469,86.669922,-2.619202,91,0.000000,0
100,0,1773659931446,0,0.001831,-0.001221,0.000000,-95.214844,84.228516,170.898438,91,0.000000,0
100,0,1773659931447,0,0.001831,-0.000732,0.000122,62.255859,73.242188,-4.046657,91,0.000000,0
100,0,1773659931491,0,0.001099,0.000244,-0.000488,-111.083984,45.166016,-4.984089,91,0.000000,0
100,0,1773659931492,0,0.000977,-0.000244,-0.000122,-266.113281,3.662109,-4.685815,91,0.000000,0
100,0,1773659931493,0,0.000732,-0.000610,-0.000244,-164.794922,30.517578,173.339844,91,0.000000,0
100,0,1773659931541,0,0.001099,-0.000488,-0.000244,-26.855469,63.476562,-2.832255,91,0.000000,0
100,0,1773659931541,0,0.000732,-0.000122,-0.000122,42.724609,83.007812,-1.894822,91,0.000000,0
100,0,1773659931543,0,0.000854,0.000000,-0.000244,58.593750,68.359375,-1.660464,91,0.000000,0
100,0,1773659931589,0,0.000977,-0.000122,-0.000122,118.408203,80.566406,10.986328,91,0.000000,0
100,0,1773659931591,0,0.000854,0.000244,-0.000122,108.642578,72.021484,17.089844,91,0.000000,0
100,0,1773659931593,0,0.000854,0.000488,-0.000244,51.269531,50.048828,25.634766,91,0.000000,0
100,0,1773659931638,0,0.000854,0.000244,-0.000122,-36.621094,6.103516,-1.937433,91,0.000000,0
100,0,1773659931638,0,0.000977,0.000000,-0.000244,-30.517578,13.427734,-2.022654,91,0.000000,0
100,0,1773659931640,0,0.000977,-0.000122,-0.000366,-9.765625,28.076172,-1.873517,91,0.000000,0
100,0,1773659931686,0,0.000854,-0.000122,-0.000366,47.607422,53.710938,31.738281,91,0.000000,0
100,0,1773659931686,0,0.000854,0.000000,-0.000244,57.373047,59.814453,-1.532632,91,0.000000,0
100,0,1773659931688,0,0.000854,0.000122,-0.000244,43.945312,59.814453,-1.660464,91,0.000000,0
100,0,1773659931736,0,0.000854,0.000244,-0.000122,-3.662109,54.931641,57.373047,91,0.000000,0
100,0,1773659931736,0,0.000854,0.000122,0.000000,-54.931641,42.724609,73.242188,91,0.000000,0
100,0,1773659931737,0,0.000977,0.000000,-0.000122,-54.931641,47.607422,-2.299623,91,0.000000,0
100,0,1773659931784,0,0.000977,-0.000122,-0.000122,-6.103516,64.697266,-2.150486,91,0.000000,0
100,0,1773659931786,0,0.000854,0.000000,-0.000122,3.662109,70.800781,69.580078,91,0.000000,0
100,0,1773659931786,0,0.000854,0.000000,-0.000122,-4.882812,67.138672,74.462891,91,0.000000,0
100,0,1773659931833,0,0.000977,0.000000,0.000000,-9.765625,69.580078,80.566406,91,0.000000,0
100,0,1773659931835,0,0.000977,-0.000122,-0.000122,-2.441406,69.580078,87.890625,91,0.000000,0
100,0,1773659931836,0,0.000977,-0.000122,-0.000122,6.103516,72.021484,-2.555286,91,0.000000,0
100,0,1773659931881,0,0.001099,0.000000,-0.000122,13.427734,79.345703,-2.619202,91,0.000000,0
100,0,1773659931882,0,0.001221,0.000000,-0.000122,15.869141,87.890625,-2.725729,91,0.000000,0
100,0,1773659931883,0,0.001099,-0.000122,-0.000122,15.869141,90.332031,-2.789644,91,0.000000,0
100,0,1773659931930,0,0.001343,0.000122,0.000000,12.207031,95.214844,-2.960087,91,0.000000,0
100,0,1773659931931,0,0.001221,0.000000,0.000000,-2.441406,106.201172,-3.173139,91,0.000000,0
100,0,1773659931932,0,0.001343,-0.000122,-0.000244,1.220703,111.083984,-3.279666,91,0.000000,0
100,0,1773659931980,0,0.001465,-0.000244,-0.000366,36.621094,123.291016,-3.386192,91,0.000000,0
100,0,1773659931980,0,0.001465,-0.000122,-0.000244,90.332031,134.277344,-3.428803,91,0.000000,0
100,0,1773659931981,0,0.001709,0.000000,-0.000366,114.746094,142.822266,-3.428803,91,0.000000,0
100,0,1773659932027,0,0.001831,0.000122,-0.000488,157.470703,157.470703,137.939453,91,0.000000,0
100,0,1773659932029,0,0.001831,0.000610,-0.000854,214.843750,180.664062,-3.279666,91,0.000000,0
100,0,1773659932030,0,0.001831,0.000732,-0.001221,202.636719,189.208984,136.718750,91,0.000000,0
100,0,1773659932076,0,0.001465,0.000244,-0.000977,92.773438,157.470703,-3.812298,91,0.000000,0
100,0,1773659932078,0,0.001465,-0.000610,-0.000122,114.746094,115.966797,-3.322276,91,0.000000,0
100,0,1773659932080,0,0.001587,-0.000366,-0.000366,137.939453,144.042969,-2.789644,91,0.000000,0
100,0,1773659932125,0,0.001221,0.000000,-0.000610,109.863281,134.277344,-1.745685,91,0.000000,0
100,0,1773659932127,0,0.000122,0.000244,-0.000854,57.373047,59.814453,26.855469,91,0.000000,0
100,0,1773659932128,0,0.000122,0.000122,0.000000,150.146484,56.152344,-0.531284,91,0.000000,0
100,0,1773659932223,0,0.000488,-0.000610,0.000000,12.207031,23.193359,-2.171791,91,0.000000,0
100,0,1773659932225,0,0.000122,0.000122,-0.000488,84.228516,3.662109,-0.403452,91,0.000000,0
100,0,1773659932226,0,0.000000,0.000610,-0.000366,83.007812,-7.324219,0.193096,91,0.000000,0
100,0,1773659932271,0,0.000000,0.000610,-0.000366,1.220703,-51.269531,0.960087,91,0.000000,0
100,0,1773659932272,0,0.000122,0.000122,-0.000122,-89.111328,-134.277344,1.173139,91,0.000000,0
100,0,1773659932272,0,0.000244,0.000122,-0.000366,-166.015625,-217.285156,2.217099,91,0.000000,0
100,0,1773659932321,0,0.000488,0.000000,-0.000366,-196.533203,-251.464844,2.664510,91,0.000000,0
100,0,1773659932324,0,0.000854,-0.000122,-0.000244,-200.195312,-286.865234,3.239752,91,0.000000,0
100,0,1773659932326,0,0.000977,-0.000122,-0.000244,-196.533203,-291.748047,3.388889,91,0.000000,0
100,0,1773659932370,0,0.001221,-0.000122,-0.000366,-183.105469,-286.865234,3.708469,91,0.000000,0
100,0,1773659932372,0,0.001465,-0.000122,-0.000366,-170.898438,-286.865234,3.964132,91,0.000000,0
100,0,1773659932373,0,0.001587,-0.000122,-0.000366,-168.457031,-289.306641,4.070659,91,0.000000,0
100,0,1773659932418,0,0.001831,-0.000244,-0.000366,-153.808594,-294.189453,-296.630859,91,0.000000,0
100,0,1773659932420,0,0.001831,-0.000366,-0.000488,-159.912109,-305.175781,-283.203125,91,0.000000,0
100,0,1773659932420,0,0.001831,-0.000488,-0.000610,-180.664062,-308.837891,3.708469,91,0.000000,0
100,0,1773659932467,0,0.001831,-0.000732,-0.000122,-168.457031,-285.644531,-246.582031,91,0.000000,0
100,0,1773659932468,0,0.001831,-0.000244,0.000122,-172.119141,-224.609375,2.451457,91,0.000000,0
100,0,1773659932470,0,0.001831,-0.000366,0.000244,-209.960938,-191.650391,1.876214,91,0.000000,0
100,0,1773659932515,0,0.001587,-0.001709,0.000122,-242.919922,-126.953125,-124.511719,91,0.000000,0
100,0,1773659932516,0,0.000977,-0.001831,0.000732,-65.917969,-86.669922,-0.573894,91,0.000000,0
100,0,1773659932517,0,0.001465,-0.001831,0.000977,42.724609,-36.621094,-1.234358,91,0.000000,0
100,0,1773659932563,0,0.001343,-0.001099,0.000732,-10.986328,20.751953,-3.087918,91,0.000000,0
100,0,1773659932613,0,0.001587,0.000000,0.000122,9.765625,93.994141,-3.599245,91,0.000000,0
100,0,1773659932615,0,0.001709,0.000977,0.000366,43.945312,157.470703,-3.087918,91,0.000000,0
100,0,1773659932616,0,0.001343,0.001831,-0.000122,21.972656,112.304688,-2.448760,91,0.000000,0
100,0,1773659932661,0,0.001831,-0.001221,0.000122,-68.359375,63.476562,-4.323625,91,0.000000,0
100,0,1773659932664,0,0.000977,-0.000488,-0.000488,-333.251953,-31.738281,292.968750,91,0.000000,0
100,0,1773659932666,0,0.001099,-0.000610,-0.000122,-323.486328,-24.414062,-5.431500,91,0.000000,0
100,0,1773659932710,0,0.000854,-0.000977,-0.000488,13.427734,93.994141,164.794922,91,0.000000,0
100,0,1773659932711,0,0.000732,-0.000122,-0.000122,72.021484,111.083984,84.228516,91,0.000000,0
100,0,1773659932712,0,0.000732,0.000000,-0.000122,74.462891,98.876953,-2.342233,91,0.000000,0
100,0,1773659932759,0,0.000977,0.000122,-0.000122,24.414062,68.359375,-2.107875,91,0.000000,0
100,0,1773659932760,0,0.000854,0.000122,-0.000122,19.531250,58.593750,-2.001348,91,0.000000,0
100,0,1773659932763,0,0.000854,0.000244,-0.000122,-23.193359,43.945312,-2.065264,91,0.000000,0
100,0,1773659932807,0,0.000977,0.000000,0.000000,-64.697266,26.855469,65.917969,91,0.000000,0
100,0,1773659932808,0,0.000977,-0.000122,-0.000122,18.310547,39.062500,46.386719,91,0.000000,0
100,0,1773659932810,0,0.000854,-0.000122,-0.000122,19.531250,46.386719,36.621094,91,0.000000,0
100,0,1773659932857,0,0.000854,0.000000,-0.000122,46.386719,50.048828,28.076172,91,0.000000,0
100,0,1773659932859,0,0.000854,0.000122,0.000000,29.296875,48.828125,-1.532632,91,0.000000,0
100,0,1773659932860,0,0.000854,0.000244,0.000000,8.544922,46.386719,35.400391,91,0.000000,0
100,0,1773659932905,0,0.000854,0.000000,0.000000,-17.089844,37.841797,36.621094,91,0.000000,0
100,0,1773659932906,0,0.000854,-0.000122,-0.000122,1.220703,43.945312,32.958984,91,0.000000,0
100,0,1773659932908,0,0.000854,-0.000122,-0.000122,12.207031,42.724609,30.517578,91,0.000000,0
100,0,1773659932955,0,0.000854,0.000000,-0.000122,14.648438,41.503906,29.296875,91,0.000000,0
100,0,1773659932955,0,0.000977,0.000000,0.000000,8.544922,43.945312,-1.553937,91,0.000000,0
100,0,1773659932957,0,0.000977,0.000000,0.000000,4.882812,45.166016,-1.575243,91,0.000000,0
100,0,1773659933051,0,0.000977,0.000000,0.000000,3.662109,48.828125,-1.639159,91,0.000000,0
100,0,1773659933052,0,0.000977,0.000000,0.000000,4.882812,51.269531,-1.681769,91,0.000000,0
100,0,1773659933052,0,0.000977,0.000000,0.000000,4.882812,53.710938,41.503906,91,0.000000,0
100,0,1773659933100,0,0.000977,0.000000,0.000000,2.441406,58.593750,47.607422,91,0.000000,0
100,0,1773659933101,0,0.001099,0.000000,0.000000,-14.648438,91.552734,78.125000,91,0.000000,0
100,0,1773659933102,0,0.001099,0.000000,0.000000,-9.765625,92.773438,84.228516,91,0.000000,0
100,0,1773659933148,0,0.001221,0.000000,0.000000,-21.972656,111.083984,-2.704423,91,0.000000,0
100,0,1773659933151,0,0.001343,0.000000,-0.000122,-13.427734,118.408203,-2.896171,91,0.000000,0
100,0,1773659933152,0,0.001343,0.000000,-0.000122,0.000000,126.953125,-2.960087,91,0.000000,0
100,0,1773659933197,0,0.001587,0.000000,-0.000244,23.193359,142.822266,-3.087918,91,0.000000,0
100,0,1773659933198,0,0.001709,0.000000,-0.000366,62.255859,164.794922,-3.109224,91,0.000000,0
100,0,1773659933200,0,0.001831,0.000122,-0.000488,98.876953,177.001953,-3.066613,91,0.000000,0
100,0,1773659933246,0,0.001831,0.000732,-0.001099,131.835938,205.078125,-3.045308,91,0.000000,0
100,0,1773659933247,0,0.001587,0.000610,-0.001221,42.724609,190.429688,-3.386192,91,0.000000,0
100,0,1773659933249,0,0.001465,0.000000,-0.000854,0.000000,178.222656,-3.535329,91,0.000000,0
100,0,1773659933295,0,0.001465,-0.000610,-0.000244,26.855469,133.056641,-3.002697,91,0.000000,0
100,0,1773659933344,0,0.001343,-0.000122,-0.000488,-4.882812,158.691406,-2.001348,91,0.000000,0
100,0,1773659933346,0,0.001099,-0.000122,-0.000488,-30.517578,144.042969,-1.766990,91,0.000000,0
100,0,1773659933347,0,0.000122,0.000488,-0.000366,-31.738281,92.773438,-0.147788,91,0.000000,0
100,0,1773659933393,0,0.000732,-0.000366,0.000000,-69.580078,52.490234,-10.986328,91,0.000000,0
100,0,1773659933393,0,0.000000,0.000610,-0.000488,-78.125000,21.972656,-141.601562,91,0.000000,0
100,0,1773659933397,0,0.000000,0.000488,-0.000488,-120.849609,-10.986328,-150.146484,91,0.000000,0
100,0,1773659933441,0,0.000122,0.000000,-0.000244,-174.560547,-67.138672,-164.794922,91,0.000000,0
100,0,1773659933441,0,0.000122,0.000000,-0.000366,-191.650391,-96.435547,2.344930,91,0.000000,0
100,0,1773659933443,0,0.000244,0.000000,-0.000366,-196.533203,-112.304688,-206.298828,91,0.000000,0
100,0,1773659933490,0,0.000366,-0.000122,-0.000488,-225.830078,-142.822266,-228.271484,91,0.000000,0
100,0,1773659933493,0,0.000610,-0.000244,-0.000610,-247.802734,-179.443359,3.282363,91,0.000000,0
100,0,1773659933494,0,0.000732,-0.000366,-0.000610,-251.464844,-194.091797,3.388889,91,0.000000,0
100,0,1773659933540,0,0.000854,-0.000366,-0.000610,-263.671875,-208.740234,3.516721,91,0.000000,0
100,0,1773659933543,0,0.001099,-0.000488,-0.000610,-269.775391,-217.285156,3.580637,91,0.000000,0
100,0,1773659933545,0,0.001343,-0.000488,-0.000488,-270.996094,-220.947266,3.601943,91,0.000000,0
100,0,1773659933587,0,0.001343,-0.000610,-0.000732,-280.761719,-239.257812,3.665858,91,0.000000,0
100,0,1773659933588,0,0.001587,-0.000732,-0.000854,-267.333984,-242.919922,3.665858,91,0.000000,0
100,0,1773659933636,0,0.001587,-0.000732,-0.000854,-264.892578,-251.464844,3.601943,91,0.000000,0
100,0,1773659933637,0,0.001831,-0.000854,-0.000854,-278.320312,-263.671875,3.197142,91,0.000000,0
100,0,1773659933639,0,0.001831,-0.001099,-0.000732,-247.802734,-268.554688,2.749731,91,0.000000,0
100,0,1773659933685,0,0.001831,-0.001099,-0.000610,-225.830078,-273.437500,-197.753906,91,0.000000,0
100,0,1773659933686,0,0.001831,-0.000977,0.000000,-115.966797,-240.478516,-184.326172,91,0.000000,0
100,0,1773659933686,0,0.001831,-0.000366,0.000244,-98.876953,-167.236328,1.790993,91,0.000000,0
100,0,1773659933733,0,0.001587,-0.000977,0.000000,-191.650391,-118.408203,0.832255,91,0.000000,0
100,0,1773659933736,0,0.001099,-0.001709,0.000244,-166.015625,-97.656250,-1.063916,91,0.000000,0
100,0,1773659933738,0,0.001099,-0.001587,0.000488,-119.628906,-85.449219,-1.830906,91,0.000000,0
100,0,1773659933782,0,0.001343,-0.001465,0.000610,-42.724609,-28.076172,104.980469,91,0.000000,0
100,0,1773659933784,0,0.001709,0.000488,0.001343,58.593750,96.435547,-2.981392,91,0.000000,0
100,0,1773659933785,0,0.001709,0.000244,0.000977,7.324219,133.056641,131.835938,91,0.000000,0
100,0,1773659933831,0,0.000977,0.001831,-0.000610,-14.648438,90.332031,79.345703,91,0.000000,0
100,0,1773659933832,0,0.001587,0.000732,0.000854,-220.947266,25.634766,-4.195793,91,0.000000,0
100,0,1773659933833,0,0.001709,-0.000977,0.000488,-231.933594,35.400391,205.078125,91,0.000000,0
100,0,1773659933880,0,0.001587,-0.000122,0.000000,-21.972656,29.296875,206.298828,91,0.000000,0
100,0,1773659933881,0,0.001099,-0.000122,-0.000488,-225.830078,-14.648438,-5.303668,91,0.000000,0
100,0,1773659933882,0,0.000854,-0.000244,-0.000488,-235.595703,7.324219,-4.579288,91,0.000000,0
100,0,1773659933928,0,0.000854,-0.000732,-0.000488,-43.945312,48.828125,-3.876214,91,0.000000,0
100,0,1773659933930,0,0.000854,-0.000244,-0.000122,15.869141,73.242188,90.332031,91,0.000000,0
100,0,1773659933931,0,0.000854,-0.000122,0.000000,31.738281,72.021484,-2.384844,91,0.000000,0
100,0,1773659934026,0,0.000854,0.000244,-0.000122,8.544922,59.814453,-2.086570,91,0.000000,0
100,0,1773659934028,0,0.000854,0.000000,0.000000,-18.310547,47.607422,-2.001348,91,0.000000,0
100,0,1773659934028,0,0.000854,0.000244,0.000000,-17.089844,42.724609,-2.022654,91,0.000000,0
100,0,1773659934075,0,0.000977,0.000122,0.000000,-91.552734,15.869141,65.917969,91,0.000000,0
100,0,1773659934076,0,0.000977,-0.000122,-0.000122,-8.544922,39.062500,45.166016,91,0.000000,0
100,0,1773659934078,0,0.000977,0.000244,0.000000,32.958984,45.166016,-1.511327,91,0.000000,0
100,0,1773659934124,0,0.000854,0.000122,0.000000,-34.179688,23.193359,41.503906,91,0.000000,0
100,0,1773659934126,0,0.000854,0.000000,-0.000122,-9.765625,32.958984,-1.681769,91,0.000000,0
100,0,1773659934127,0,0.000854,0.000000,-0.000122,-9.765625,31.738281,36.621094,91,0.000000,0
100,0,1773659934172,0,0.000977,0.000000,0.000000,-4.882812,35.400391,34.179688,91,0.000000,0
100,0,1773659934173,0,0.000977,0.000000,0.000000,-7.324219,39.062500,35.400391,91,0.000000,0
100,0,1773659934176,0,0.000977,0.000000,0.000000,-4.882812,37.841797,35.400391,91,0.000000,0
100,0,1773659934221,0,0.000977,0.000000,0.000000,-1.220703,42.724609,-1.639159,91,0.000000,0
100,0,1773659934222,0,0.000977,0.000000,0.000000,-1.220703,45.166016,-1.681769,91,0.000000,0
100,0,1773659934224,0,0.000977,0.000000,0.000000,-1.220703,47.607422,-1.703074,91,0.000000,0
100,0,1773659934270,0,0.000977,0.000000,0.000000,0.000000,52.490234,-1.745685,91,0.000000,0
100,0,1773659934271,0,0.001099,0.000000,0.000000,3.662109,57.373047,-1.809601,91,0.000000,0
100,0,1773659934272,0,0.001099,0.000000,0.000000,1.220703,63.476562,-1.852211,91,0.000000,0
100,0,1773659934319,0,0.001099,0.000122,0.000000,-14.648438,72.021484,59.814453,91,0.000000,0
100,0,1773659934321,0,0.001221,0.000000,0.000000,-29.296875,80.566406,68.359375,91,0.000000,0
100,0,1773659934323,0,0.001221,0.000000,0.000000,-34.179688,87.890625,-2.299623,91,0.000000,0
100,0,1773659934367,0,0.001221,0.000122,0.000000,-30.517578,95.214844,84.228516,91,0.000000,0
100,0,1773659934370,0,0.001221,0.000000,-0.000122,-41.503906,112.304688,93.994141,91,0.000000,0
100,0,1773659934370,0,0.001343,0.000000,-0.000122,-26.855469,118.408203,97.656250,91,0.000000,0
100,0,1773659934416,0,0.001343,0.000000,-0.000244,-2.441406,133.056641,103.759766,91,0.000000,0
100,0,1773659934419,0,0.001465,0.000000,-0.000366,15.869141,151.367188,-2.917476,91,0.000000,0
100,0,1773659934420,0,0.001587,0.000000,-0.000366,32.958984,158.691406,-2.917476,91,0.000000,0
100,0,1773659934513,0,0.001831,0.000244,-0.000610,97.656250,168.457031,-2.832255,91,0.000000,0
100,0,1773659934516,0,0.001709,0.000732,-0.001221,75.683594,213.623047,117.187500,91,0.000000,0
100,0,1773659934516,0,0.001343,0.000488,-0.001099,4.882812,181.884766,-3.258361,91,0.000000,0
100,0,1773659934562,0,0.001831,-0.000732,-0.000244,-9.765625,167.236328,-3.471413,91,0.000000,0
100,0,1773659934565,0,0.000977,-0.000122,0.000244,-101.318359,155.029297,53.710938,91,0.000000,0
100,0,1773659934566,0,0.000488,0.000000,-0.000366,-97.656250,133.056641,-0.957389,91,0.000000,0
100,0,1773659934611,0,0.000244,0.000244,-0.000610,-106.201172,53.710938,-53.710938,91,0.000000,0
100,0,1773659934612,0,0.000122,0.000122,-0.000366,-124.511719,32.958984,-87.890625,91,0.000000,0
100,0,1773659934613,0,0.000000,0.000000,-0.000366,-119.628906,3.662109,-107.421875,91,0.000000,0
100,0,1773659934660,0,0.000122,0.000000,-0.000366,-133.056641,-37.841797,1.450108,91,0.000000,0
100,0,1773659934662,0,0.000000,0.000000,-0.000366,-158.691406,-75.683594,2.131877,91,0.000000,0
100,0,1773659934663,0,0.000122,0.000000,-0.000366,-164.794922,-100.097656,2.430151,91,0.000000,0
100,0,1773659934710,0,0.000244,0.000000,-0.000488,-178.222656,-129.394531,-234.375000,91,0.000000,0
100,0,1773659934710,0,0.000488,-0.000122,-0.000488,-183.105469,-162.353516,-256.347656,91,0.000000,0
100,0,1773659934712,0,0.000610,-0.000122,-0.000366,-184.326172,-174.560547,-267.333984,91,0.000000,0
100,0,1773659934758,0,0.000732,-0.000244,-0.000488,-202.636719,-198.974609,3.942827,91,0.000000,0
100,0,1773659934760,0,0.000977,-0.000366,-0.000610,-208.740234,-220.947266,4.091964,91,0.000000,0
100,0,1773659934761,0,0.001221,-0.000244,-0.000488,-213.623047,-224.609375,4.028048,91,0.000000,0
100,0,1773659934807,0,0.001465,-0.000366,-0.000854,-355.224609,-184.326172,-270.996094,91,0.000000,0
100,0,1773659934808,0,0.001587,-0.000610,-0.001221,-285.644531,-256.347656,3.516721,91,0.000000,0
100,0,1773659934810,0,0.001465,-0.000732,-0.001343,-277.099609,-286.865234,-257.568359,91,0.000000,0
100,0,1773659934855,0,0.001831,-0.000732,-0.000732,-262.451172,-269.775391,3.367584,91,0.000000,0
100,0,1773659934856,0,0.001831,-0.000732,-0.000610,-244.140625,-268.554688,-240.478516,91,0.000000,0
100,0,1773659934858,0,0.001831,-0.000854,-0.000610,-225.830078,-267.333984,-230.712891,91,0.000000,0
100,0,1773659934904,0,0.001831,-0.001465,-0.000488,-170.898438,-263.671875,2.643204,91,0.000000,0
100,0,1773659934905,0,0.001831,-0.000854,0.000000,-18.310547,-185.546875,-191.650391,91,0.000000,0
100,0,1773659934907,0,0.001709,-0.000610,0.000000,-25.634766,-183.105469,2.025351,91,0.000000,0
100,0,1773659934953,0,0.001709,-0.001099,0.000122,-65.917969,-135.498047,1.109224,91,0.000000,0
100,0,1773659934956,0,0.001465,-0.001709,0.000244,-35.400391,-93.994141,0.043959,91,0.000000,0
100,0,1773659934957,0,0.001221,-0.001709,0.000488,-12.207031,-75.683594,-0.659115,91,0.000000,0
100,0,1773659935002,0,0.001343,-0.001465,0.000854,35.400391,-34.179688,-2.043959,91,0.000000,0
100,0,1773659935006,0,0.001465,-0.001099,0.000732,65.917969,32.958984,-2.832255,91,0.000000,0
100,0,1773659935007,0,0.001587,-0.000854,0.000732,65.917969,47.607422,-3.002697,91,0.000000,0
100,0,1773659935050,0,0.001831,0.000732,0.000610,35.400391,146.484375,114.746094,91,0.000000,0
100,0,1773659935050,0,0.001099,0.001831,-0.000732,-51.269531,113.525391,-2.576591,91,0.000000,0
100,0,1773659935053,0,0.001221,0.001221,0.000000,-284.423828,19.531250,170.898438,91,0.000000,0
100,0,1773659935099,0,0.001709,-0.001709,0.000000,-202.636719,29.296875,-4.685815,91,0.000000,0
100,0,1773659935100,0,0.001343,0.000000,-0.000122,-63.476562,8.544922,-4.664510,91,0.000000,0
100,0,1773659935101,0,0.000977,0.000244,-0.000488,-159.912109,0.000000,-4.962784,91,0.000000,0
100,0,1773659935147,0,0.000977,-0.000977,-0.000366,-128.173828,28.076172,183.105469,91,0.000000,0
100,0,1773659935148,0,0.000732,-0.000122,-0.000366,63.476562,85.449219,-2.768339,91,0.000000,0
100,0,1773659935150,0,0.000732,0.000000,-0.000244,50.048828,89.111328,-2.384844,91,0.000000,0
100,0,1773659935196,0,0.001099,-0.000122,0.000000,109.863281,97.656250,57.373047,91,0.000000,0
100,0,1773659935198,0,0.000854,0.000366,0.000000,62.255859,75.683594,-2.001348,91,0.000000,0
100,0,1773659935200,0,0.000732,0.000488,-0.000122,-8.544922,41.503906,-2.214401,91,0.000000,0
100,0,1773659935245,0,0.000854,0.000000,-0.000122,-63.476562,6.103516,81.787109,91,0.000000,0
100,0,1773659935248,0,0.000977,0.000000,-0.000244,-51.269531,13.427734,-2.320928,91,0.000000,0
100,0,1773659935248,0,0.000854,0.000000,-0.000244,-39.062500,19.531250,-2.214401,91,0.000000,0
100,0,1773659935295,0,0.000854,-0.000366,-0.000244,20.751953,36.621094,45.166016,91,0.000000,0
100,0,1773659935295,0,0.000854,-0.000122,-0.000122,61.035156,58.593750,-1.468716,91,0.000000,0
100,0,1773659935297,0,0.000854,0.000000,-0.000122,52.490234,52.490234,-1.511327,91,0.000000,0
100,0,1773659935342,0,0.000977,0.000244,0.000000,7.324219,39.062500,-1.788296,91,0.000000,0
100,0,1773659935345,0,0.000977,0.000000,0.000000,-30.517578,23.193359,51.269531,91,0.000000,0
100,0,1773659935346,0,0.000977,0.000000,0.000000,-19.531250,28.076172,47.607422,91,0.000000,0
100,0,1773659935391,0,0.000854,-0.000122,-0.000244,18.310547,43.945312,35.400391,91,0.000000,0
100,0,1773659935393,0,0.000854,0.000000,-0.000122,30.517578,47.607422,-1.575243,91,0.000000,0
100,0,1773659935398,0,0.000854,0.000000,-0.000122,20.751953,46.386719,37.841797,91,0.000000,0
100,0,1773659935440,0,0.000977,0.000000,0.000000,1.220703,46.386719,46.386719,91,0.000000,0
100,0,1773659935441,0,0.000977,0.000000,0.000000,9.765625,48.828125,51.269531,91,0.000000,0
100,0,1773659935442,0,0.000977,0.000000,-0.000122,13.427734,51.269531,52.490234,91,0.000000,0
100,0,1773659935488,0,0.000977,0.000000,-0.000122,14.648438,53.710938,-2.043959,91,0.000000,0
100,0,1773659935491,0,0.000977,0.000000,-0.000122,14.648438,59.814453,63.476562,91,0.000000,0
100,0,1773659935493,0,0.001099,0.000000,-0.000122,20.751953,61.035156,-2.171791,91,0.000000,0
100,0,1773659935537,0,0.001221,0.000000,0.000000,21.972656,67.138672,-2.278317,91,0.000000,0
100,0,1773659935542,0,0.001221,0.000000,0.000000,17.089844,80.566406,84.228516,91,0.000000,0
100,0,1773659935543,0,0.001099,0.000000,0.000000,17.089844,81.787109,90.332031,91,0.000000,0
100,0,1773659935586,0,0.001221,0.000122,0.000000,-3.662109,97.656250,-2.853560,91,0.000000,0
100,0,1773659935588,0,0.001221,0.000000,-0.000122,-15.869141,130.615234,120.849609,91,0.000000,0
100,0,1773659935588,0,0.001343,-0.000122,-0.000244,-7.324219,115.966797,-3.173139,91,0.000000,0
100,0,1773659935635,0,0.001343,-0.000244,-0.000244,29.296875,126.953125,-3.237055,91,0.000000,0
100,0,1773659935636,0,0.001587,0.000000,-0.000366,52.490234,141.601562,-3.322276,91,0.000000,0
100,0,1773659935638,0,0.001587,0.000000,-0.000366,59.814453,147.705078,136.718750,91,0.000000,0
100,0,1773659935683,0,0.001831,0.000244,-0.000732,102.539062,163.574219,-3.428803,91,0.000000,0
100,0,1773659935687,0,0.001831,0.000244,-0.001099,144.042969,174.560547,141.601562,91,0.000000,0
100,0,1773659935689,0,0.001465,0.000122,-0.001099,145.263672,166.015625,145.263672,91,0.000000,0
100,0,1773659935732,0,0.001587,-0.000488,-0.000244,114.746094,109.863281,159.912109,91,0.000000,0
100,0,1773659935733,0,0.001709,-0.000366,-0.000610,146.484375,126.953125,137.939453,91,0.000000,0
100,0,1773659935737,0,0.001465,0.000000,-0.000610,134.277344,117.187500,119.628906,91,0.000000,0
100,0,1773659935830,0,0.000854,0.000244,-0.000854,90.332031,104.980469,-2.065264,91,0.000000,0
100,0,1773659935880,0,0.000610,-0.000366,0.000122,117.187500,73.242188,-1.724380,91,0.000000,0
100,0,1773659935883,0,0.000854,-0.001099,0.000366,42.724609,50.048828,-3.237055,91,0.000000,0
100,0,1773659935885,0,0.000488,0.000244,-0.000366,108.642578,35.400391,1.220703,91,0.000000,0
100,0,1773659935928,0,0.000122,0.000244,-0.000244,-122.070312,-173.339844,-104.980469,91,0.000000,0
100,0,1773659935930,0,0.000366,0.000122,-0.000122,-172.119141,-241.699219,-169.677734,91,0.000000,0
100,0,1773659935931,0,0.000488,0.000000,-0.000122,-169.677734,-252.685547,2.238404,91,0.000000,0
100,0,1773659935976,0,0.000732,0.000000,-0.000122,-156.250000,-273.437500,2.813647,91,0.000000,0
100,0,1773659935977,0,0.000977,0.000000,-0.000122,-139.160156,-279.541016,3.324974,91,0.000000,0
100,0,1773659935978,0,0.001099,0.000000,-0.000244,-130.615234,-277.099609,3.474111,91,0.000000,0
100,0,1773659936025,0,0.001221,-0.000122,-0.000244,-111.083984,-280.761719,3.644553,91,0.000000,0
100,0,1773659936026,0,0.001343,-0.000122,-0.000366,-86.669922,-292.968750,3.793690,91,0.000000,0
100,0,1773659936028,0,0.001465,-0.000122,-0.000366,-76.904297,-303.955078,3.857606,91,0.000000,0
100,0,1773659936073,0,0.001709,0.000000,-0.000366,-86.669922,-329.589844,3.836300,91,0.000000,0
100,0,1773659936076,0,0.001831,-0.000488,-0.000244,-117.187500,-336.914062,-264.892578,91,0.000000,0
100,0,1773659936076,0,0.001831,-0.000610,-0.000122,-96.435547,-327.148438,3.623248,91,0.000000,0
100,0,1773659936123,0,0.001831,-0.000244,0.000000,-51.269531,-273.437500,3.431500,91,0.000000,0
100,0,1773659936125,0,0.001831,-0.000488,0.000488,-86.669922,-190.429688,-211.181641,91,0.000000,0
100,0,1773659936126,0,0.001831,-0.000854,0.000366,-108.642578,-148.925781,2.195793,91,0.000000,0
100,0,1773659936171,0,0.001465,-0.001831,0.000488,-100.097656,-117.187500,0.874865,91,0.000000,0
100,0,1773659936173,0,0.001343,-0.001831,0.001099,36.621094,-53.710938,-0.914779,91,0.000000,0
100,0,1773659936175,0,0.001465,-0.001465,0.001099,53.710938,-15.869141,-1.660464,91,0.000000,0
100,0,1773659936220,0,0.001587,-0.001221,0.000854,54.931641,84.228516,113.525391,91,0.000000,0
100,0,1773659936221,0,0.001587,0.000610,0.000732,26.855469,126.953125,131.835938,91,0.000000,0
100,0,1773659936222,0,0.000610,0.001465,-0.001831,51.269531,100.097656,-2.448760,91,0.000000,0
100,0,1773659936366,0,0.001831,0.001831,0.000122,-162.353516,137.939453,-2.960087,91,0.000000,0
100,0,1773659936366,0,0.001831,-0.001831,0.000000,-227.050781,53.710938,-4.557983,91,0.000000,0
100,0,1773659936367,0,0.001831,-0.001587,0.000122,-28.076172,59.814453,196.533203,91,0.000000,0
100,0,1773659936415,0,0.000854,0.000366,-0.000488,-31.738281,45.166016,227.050781,91,0.000000,0
100,0,1773659936415,0,0.000854,-0.000732,-0.000244,-164.794922,30.517578,-4.046657,91,0.000000,0
100,0,1773659936420,0,0.000732,0.000366,-0.000244,0.000000,36.621094,56.152344,91,0.000000,0
100,0,1773659936465,0,0.000854,0.000122,-0.000244,-63.476562,2.441406,-2.320928,91,0.000000,0
100,0,1773659936468,0,0.000977,-0.000244,-0.000244,-21.972656,20.751953,-1.937433,91,0.000000,0
100,0,1773659936470,0,0.000854,-0.000122,-0.000244,17.089844,30.517578,43.945312,91,0.000000,0
100,0,1773659936512,0,0.000854,-0.000244,-0.000366,67.138672,50.048828,-1.383495,91,0.000000,0
100,0,1773659936515,0,0.000854,0.000000,-0.000244,73.242188,52.490234,21.972656,91,0.000000,0
100,0,1773659936561,0,0.000854,0.000122,-0.000244,57.373047,52.490234,-1.468716,91,0.000000,0
100,0,1773659936562,0,0.000854,0.000122,-0.000122,4.882812,43.945312,42.724609,91,0.000000,0
100,0,1773659936563,0,0.000854,0.000000,-0.000122,-15.869141,34.179688,-1.894822,91,0.000000,0
100,0,1773659936708,0,0.000977,-0.000122,-0.000244,28.076172,53.710938,42.724609,91,0.000000,0
100,0,1773659936710,0,0.000854,0.000000,-0.000122,25.634766,59.814453,56.152344,91,0.000000,0
100,0,1773659936710,0,0.000977,0.000122,-0.000122,9.765625,64.697266,-2.086570,91,0.000000,0
100,0,1773659936757,0,0.000977,0.000000,-0.000122,-6.103516,67.138672,72.021484,91,0.000000,0
100,0,1773659936758,0,0.000977,-0.000122,-0.000244,3.662109,72.021484,-2.470065,91,0.000000,0
100,0,1773659936762,0,0.001343,0.000000,0.000000,6.103516,101.318359,-3.258361,91,0.000000,0
100,0,1773659936805,0,0.001343,-0.000244,-0.000366,19.531250,112.304688,144.042969,91,0.000000,0
100,0,1773659936806,0,0.001587,-0.000122,-0.000366,89.111328,129.394531,-3.727077,91,0.000000,0
100,0,1773659936806,0,0.001709,0.000000,-0.000488,107.421875,136.718750,-3.790993,91,0.000000,0
100,0,1773659936854,0,0.001831,0.000000,-0.000732,153.808594,153.808594,-3.876214,91,0.000000,0
100,0,1773659936856,0,0.001831,0.000244,-0.001099,230.712891,177.001953,-3.769688,91,0.000000,0
100,0,1773659936857,0,0.001831,0.000488,-0.001343,257.568359,185.546875,-3.769688,91,0.000000,0
100,0,1773659936903,0,0.001709,0.000244,-0.001099,225.830078,159.912109,169.677734,91,0.000000,0
100,0,1773659936905,0,0.001465,-0.000244,-0.000366,192.871094,96.435547,-3.258361,91,0.000000,0
100,0,1773659936906,0,0.001709,-0.000122,-0.000366,184.326172,134.277344,-2.896171,91,0.000000,0
100,0,1773659936951,0,0.001099,0.000122,-0.000732,126.953125,109.863281,-2.065264,91,0.000000,0
100,0,1773659936952,0,0.000244,0.000244,0.000244,163.574219,72.021484,-0.659115,91,0.000000,0
100,0,1773659936955,0,0.000732,-0.001465,0.000244,133.056641,54.931641,109.863281,91,0.000000,0
100,0,1773659937000,0,0.000488,0.000122,-0.000244,131.835938,12.207031,6.103516,91,0.000000,0
100,0,1773659937001,0,0.000000,0.001099,-0.000488,69.580078,-19.531250,-64.697266,91,0.000000,0
100,0,1773659937003,0,-0.000122,0.000977,-0.000366,14.648438,-63.476562,0.363539,91,0.000000,0
100,0,1773659937048,0,0.000000,0.000244,-0.000122,-70.800781,-152.587891,0.235707,91,0.000000,0
100,0,1773659937051,0,0.000122,0.000122,-0.000122,-81.787109,-185.546875,0.576591,91,0.000000,0
100,0,1773659937054,0,0.000122,0.000244,-0.000122,-89.111328,-201.416016,0.810950,91,0.000000,0
100,0,1773659937098,0,0.000244,0.000366,-0.000122,-140.380859,-240.478516,-130.615234,91,0.000000,0
100,0,1773659937098,0,0.000366,0.000122,-0.000122,-157.470703,-269.775391,1.918825,91,0.000000,0
100,0,1773659937099,0,0.000488,0.000122,-0.000122,-150.146484,-280.761719,2.195793,91,0.000000,0
100,0,1773659937146,0,0.000610,0.000122,0.000000,-134.277344,-301.513672,-217.285156,91,0.000000,0
100,0,1773659937146,0,0.000732,0.000122,-0.000122,-124.511719,-308.837891,3.218447,91,0.000000,0
100,0,1773659937149,0,0.000854,0.000000,-0.000122,-112.304688,-311.279297,3.452806,91,0.000000,0
100,0,1773659937195,0,0.001099,0.000000,-0.000122,-68.359375,-311.279297,-284.423828,91,0.000000,0
100,0,1773659937198,0,0.001343,0.000000,-0.000122,-58.593750,-328.369141,-297.851562,91,0.000000,0
100,0,1773659937200,0,0.001465,0.000000,-0.000122,-56.152344,-335.693359,4.305017,91,0.000000,0
100,0,1773659937244,0,0.001831,0.000000,0.000000,-74.462891,-338.134766,4.368933,91,0.000000,0
100,0,1773659937246,0,0.001831,-0.000488,0.000000,-83.007812,-313.720703,-308.837891,91,0.000000,0
100,0,1773659937246,0,0.001831,-0.000366,0.000000,-64.697266,-297.851562,-300.292969,91,0.000000,0
100,0,1773659937293,0,0.001831,-0.000244,0.000244,-115.966797,-257.568359,-260.009766,91,0.000000,0
100,0,1773659937294,0,0.001831,-0.000854,0.000488,-150.146484,-136.718750,2.430151,91,0.000000,0
100,0,1773659937296,0,0.001831,-0.001343,0.000366,-178.222656,-106.201172,-153.808594,91,0.000000,0
100,0,1773659937342,0,0.001343,-0.001831,0.000854,-85.449219,-63.476562,-0.062567,91,0.000000,0
100,0,1773659937345,0,0.001343,-0.001831,0.000854,8.544922,-1.220703,32.958984,91,0.000000,0
100,0,1773659937346,0,0.001465,-0.001709,0.000732,29.296875,39.062500,89.111328,91,0.000000,0
100,0,1773659937390,0,0.001587,-0.000854,-0.000122,69.580078,96.435547,-3.237055,91,0.000000,0
100,0,1773659937391,0,0.000610,0.001831,-0.001831,81.787109,137.939453,-2.086570,91,0.000000,0
100,0,1773659937394,0,0.000732,0.001831,-0.000610,46.386719,19.531250,57.373047,91,0.000000,0
100,0,1773659937439,0,0.001831,-0.000366,0.000244,-314.941406,115.966797,-4.217099,91,0.000000,0
100,0,1773659937440,0,0.001831,-0.001465,0.000366,15.869141,80.566406,205.078125,91,0.000000,0
100,0,1773659937441,0,0.001465,-0.000366,-0.000122,79.345703,85.449219,-4.600594,91,0.000000,0
100,0,1773659937488,0,0.000366,0.000244,-0.000732,-152.587891,10.986328,-5.580637,91,0.000000,0
100,0,1773659937488,0,0.000977,-0.000610,0.000000,-207.519531,37.841797,-4.451457,91,0.000000,0
100,0,1773659937489,0,0.000977,-0.000977,-0.000244,-101.318359,56.152344,-3.641856,91,0.000000,0
100,0,1773659937536,0,0.000854,-0.000244,-0.000122,48.828125,91.552734,-2.406149,91,0.000000,0
100,0,1773659937538,0,0.000977,-0.000122,-0.000122,102.539062,95.214844,-1.766990,91,0.000000,0
100,0,1773659937539,0,0.001099,-0.000122,-0.000122,128.173828,129.394531,-1.596548,91,0.000000,0
100,0,1773659937586,0,0.000732,0.000366,-0.000244,62.255859,70.800781,-1.745685,91,0.000000,0
100,0,1773659937588,0,0.000732,0.000244,-0.000122,-34.179688,18.310547,-2.107875,91,0.000000,0
100,0,1773659937634,0,0.000854,0.000000,-0.000122,-43.945312,13.427734,-2.193096,91,0.000000,0
100,0,1773659937638,0,0.000977,-0.000122,-0.000244,-20.751953,21.972656,-1.980043,91,0.000000,0
100,0,1773659937638,0,0.000854,-0.000122,-0.000366,34.179688,36.621094,-1.660464,91,0.000000,0
100,0,1773659937683,0,0.000854,-0.000244,-0.000366,86.669922,56.152344,-1.383495,91,0.000000,0
100,0,1773659937685,0,0.000854,0.000122,-0.000122,46.386719,52.490234,41.503906,91,0.000000,0
100,0,1773659937686,0,0.000854,0.000244,-0.000122,17.089844,42.724609,51.269531,91,0.000000,0
100,0,1773659937731,0,0.000977,0.000000,-0.000122,-14.648438,42.724609,-2.043959,91,0.000000,0
100,0,1773659937732,0,0.000977,-0.000244,-0.000244,39.062500,51.269531,-1.916127,91,0.000000,0
100,0,1773659937733,0,0.000977,-0.000122,-0.000244,36.621094,59.814453,-1.809601,91,0.000000,0
100,0,1773659937781,0,0.000854,0.000000,-0.000122,29.296875,58.593750,-1.873517,91,0.000000,0
100,0,1773659937782,0,0.000977,0.000000,0.000000,18.310547,57.373047,-1.937433,91,0.000000,0
100,0,1773659937783,0,0.000977,0.000000,-0.000122,13.427734,61.035156,-2.001348,91,0.000000,0
100,0,1773659937829,0,0.000854,-0.000122,-0.000122,7.324219,61.035156,-2.107875,91,0.000000,0
100,0,1773659937830,0,0.000977,-0.000122,-0.000122,12.207031,64.697266,69.580078,91,0.000000,0
100,0,1773659937831,0,0.000977,0.000000,-0.000122,12.207031,67.138672,-2.257012,91,0.000000,0
100,0,1773659937877,0,0.001099,-0.000122,-0.000244,7.324219,72.021484,-2.406149,91,0.000000,0
100,0,1773659937877,0,0.001099,0.000000,-0.000122,20.751953,81.787109,92.773438,91,0.000000,0
100,0,1773659937879,0,0.001221,0.000000,0.000000,23.193359,80.566406,-2.725729,91,0.000000,0
100,0,1773659937926,0,0.001221,0.000000,0.000000,0.000000,98.876953,115.966797,91,0.000000,0
100,0,1773659937928,0,0.001221,-0.000122,-0.000244,-2.441406,107.421875,130.615234,91,0.000000,0
100,0,1773659937928,0,0.001343,-0.000244,-0.000244,13.427734,111.083984,-3.322276,91,0.000000,0
100,0,1773659937975,0,0.001343,-0.000244,-0.000366,64.697266,120.849609,134.277344,91,0.000000,0
100,0,1773659937977,0,0.001465,-0.000122,-0.000244,104.980469,131.835938,133.056641,91,0.000000,0
100,0,1773659937978,0,0.001587,0.000000,-0.000366,128.173828,142.822266,133.056641,91,0.000000,0
100,0,1773659938025,0,0.001709,0.000122,-0.000732,167.236328,151.367188,133.056641,91,0.000000,0
100,0,1773659938025,0,0.001831,0.000366,-0.001221,213.623047,174.560547,-3.364887,91,0.000000,0
100,0,1773659938027,0,0.001587,0.000488,-0.001221,180.664062,168.457031,-3.599245,91,0.000000,0
100,0,1773659938121,0,0.001587,-0.000244,-0.000366,108.642578,126.953125,170.898438,91,0.000000,0
100,0,1773659938121,0,0.001709,-0.000244,-0.000366,161.132812,137.939453,125.732422,91,0.000000,0
100,0,1773659938124,0,0.001587,0.000000,-0.000488,133.056641,141.601562,102.539062,91,0.000000,0
100,0,1773659938170,0,0.000854,0.000122,-0.000854,76.904297,111.083984,-2.022654,91,0.000000,0
100,0,1773659938218,0,0.000488,0.000000,0.000122,150.146484,72.021484,-10.986328,91,0.000000,0
100,0,1773659938221,0,0.000122,0.000610,-0.000366,140.380859,0.000000,-59.814453,91,0.000000,0
100,0,1773659938223,0,-0.000122,0.000854,-0.000366,30.517578,-53.710938,-93.994141,91,0.000000,0
100,0,1773659938267,0,0.000122,0.000122,-0.000244,-72.021484,-170.898438,1.002697,91,0.000000,0
100,0,1773659938271,0,0.000244,0.000244,-0.000244,-158.691406,-251.464844,-168.457031,91,0.000000,0
100,0,1773659938272,0,0.000366,0.000122,-0.000244,-174.560547,-267.333984,-189.208984,91,0.000000,0
100,0,1773659938316,0,0.000610,0.000000,-0.000244,-168.457031,-296.630859,3.005394,91,0.000000,0
100,0,1773659938318,0,0.000732,0.000000,-0.000244,-145.263672,-312.500000,3.431500,91,0.000000,0
100,0,1773659938320,0,0.000854,0.000000,-0.000244,-126.953125,-319.824219,3.623248,91,0.000000,0
100,0,1773659938365,0,0.001221,0.000000,-0.000244,-100.097656,-321.044922,3.921522,91,0.000000,0
100,0,1773659938367,0,0.001587,0.000000,-0.000244,-89.111328,-325.927734,4.134574,91,0.000000,0
100,0,1773659938368,0,0.001709,-0.000122,-0.000244,-67.138672,-327.148438,4.262406,91,0.000000,0
100,0,1773659938463,0,0.001831,0.000000,-0.000366,-45.166016,-346.679688,4.155880,91,0.000000,0
100,0,1773659938465,0,0.001831,-0.000122,-0.000366,-114.746094,-351.562500,-273.437500,91,0.000000,0
100,0,1773659938466,0,0.001831,-0.000610,-0.000122,-148.925781,-340.576172,3.601943,91,0.000000,0
100,0,1773659938511,0,0.001831,-0.000244,0.000366,-106.201172,-301.513672,3.175837,91,0.000000,0
100,0,1773659938513,0,0.001831,-0.001221,0.000000,-256.347656,-152.587891,-168.457031,91,0.000000,0
100,0,1773659938515,0,0.001343,-0.001709,0.001099,54.931641,-28.076172,-1.063916,91,0.000000,0
100,0,1773659938560,0,0.001465,-0.001343,0.000854,69.580078,52.490234,102.539062,91,0.000000,0
100,0,1773659938566,0,0.000977,0.000488,-0.001343,36.621094,115.966797,100.097656,91,0.000000,0
100,0,1773659938567,0,0.001099,0.001831,-0.001221,100.097656,75.683594,53.710938,91,0.000000,0
100,0,1773659938608,0,0.001831,0.000122,0.000488,-213.623047,139.160156,-4.174488,91,0.000000,0
100,0,1773659938611,0,0.001831,-0.001221,0.000244,-34.179688,70.800781,-4.430151,91,0.000000,0
100,0,1773659938611,0,0.001587,-0.000244,0.000000,80.566406,89.111328,-4.430151,91,0.000000,0
100,0,1773659938658,0,0.000610,0.000244,-0.000732,-192.871094,8.544922,261.230469,91,0.000000,0
100,0,1773659938658,0,0.001221,-0.000610,0.000000,-233.154297,10.986328,-4.515373,91,0.000000,0
100,0,1773659938659,0,0.000977,-0.000977,-0.000488,-102.539062,56.152344,-3.492719,91,0.000000,0
100,0,1773659938706,0,0.000854,-0.000244,-0.000122,46.386719,93.994141,74.462891,91,0.000000,0
100,0,1773659938706,0,0.000977,-0.000244,-0.000122,109.863281,85.449219,-1.575243,91,0.000000,0
100,0,1773659938708,0,0.001099,-0.000122,-0.000122,133.056641,102.539062,-1.298274,91,0.000000,0
100,0,1773659938756,0,0.000854,0.000122,-0.000122,125.732422,83.007812,19.531250,91,0.000000,0
100,0,1773659938757,0,0.000732,0.000366,-0.000122,-9.765625,23.193359,-1.852211,91,0.000000,0
100,0,1773659938760,0,0.000854,0.000244,-0.000122,-46.386719,2.441406,-2.086570,91,0.000000,0
100,0,1773659938805,0,0.000854,0.000000,-0.000366,-68.359375,3.662109,70.800781,91,0.000000,0
100,0,1773659938805,0,0.000854,-0.000366,-0.000366,7.324219,39.062500,42.724609,91,0.000000,0
100,0,1773659938806,0,0.000854,-0.000366,-0.000366,52.490234,53.710938,29.296875,91,0.000000,0
100,0,1773659938852,0,0.000854,0.000000,-0.000244,78.125000,57.373047,17.089844,91,0.000000,0
100,0,1773659938853,0,0.000854,0.000122,-0.000122,61.035156,54.931641,30.517578,91,0.000000,0
100,0,1773659938856,0,0.000854,0.000244,0.000000,23.193359,47.607422,-1.724380,91,0.000000,0
100,0,1773659938901,0,0.000977,0.000122,-0.000122,-40.283203,34.179688,57.373047,91,0.000000,0
100,0,1773659938903,0,0.000977,-0.000244,-0.000244,-8.544922,42.724609,48.828125,91,0.000000,0
100,0,1773659938905,0,0.000854,-0.000244,-0.000244,24.414062,50.048828,42.724609,91,0.000000,0
100,0,1773659938950,0,0.000854,0.000000,-0.000122,42.724609,57.373047,36.621094,91,0.000000,0
100,0,1773659938951,0,0.000854,0.000000,-0.000122,19.531250,59.814453,47.607422,91,0.000000,0
100,0,1773659938953,0,0.000854,0.000000,-0.000122,9.765625,57.373047,53.710938,91,0.000000,0
100,0,1773659939000,0,0.000977,0.000000,-0.000122,7.324219,59.814453,-2.086570,91,0.000000,0
100,0,1773659939003,0,0.000977,0.000000,-0.000122,10.986328,67.138672,-2.235707,91,0.000000,0
100,0,1773659939005,0,0.000977,0.000000,-0.000244,13.427734,69.580078,74.462891,91,0.000000,0
100,0,1773659939047,0,0.000977,0.000000,-0.000244,8.544922,78.125000,-2.491370,91,0.000000,0
100,0,1773659939050,0,0.001099,0.000000,-0.000244,13.427734,83.007812,-2.640507,91,0.000000,0
100,0,1773659939052,0,0.001221,0.000000,-0.000244,10.986328,91.552734,-2.704423,91,0.000000,0
100,0,1773659939097,0,0.001221,0.000000,0.000000,13.427734,91.552734,-2.917476,91,0.000000,0
100,0,1773659939098,0,0.001221,0.000000,0.000000,-8.544922,104.980469,-3.173139,91,0.000000,0
100,0,1773659939100,0,0.001221,-0.000122,-0.000122,-4.882812,108.642578,128.173828,91,0.000000,0
100,0,1773659939145,0,0.001343,-0.000244,-0.000244,31.738281,117.187500,135.498047,91,0.000000,0
100,0,1773659939146,0,0.001343,-0.000122,-0.000244,68.359375,126.953125,139.160156,91,0.000000,0
100,0,1773659939146,0,0.001587,-0.000122,-0.000366,85.449219,134.277344,140.380859,91,0.000000,0
100,0,1773659939194,0,0.001709,0.000000,-0.000488,129.394531,146.484375,-3.514024,91,0.000000,0
100,0,1773659939242,0,0.001831,0.000122,-0.000854,169.677734,162.353516,-3.471413,91,0.000000,0
100,0,1773659939244,0,0.001831,0.000244,-0.001099,191.650391,169.677734,-3.450108,91,0.000000,0
100,0,1773659939245,0,0.001465,0.000244,-0.001099,183.105469,157.470703,-3.577940,91,0.000000,0
100,0,1773659939292,0,0.001587,-0.000244,-0.000244,195.312500,128.173828,128.173828,91,0.000000,0
100,0,1773659939293,0,0.000488,0.000366,-0.000977,89.111328,81.787109,46.386719,91,0.000000,0
100,0,1773659939295,0,0.000244,0.000488,-0.000122,123.291016,62.255859,-1.220703,91,0.000000,0
100,0,1773659939341,0,0.000366,-0.000977,0.000000,41.503906,24.414062,-2.704423,91,0.000000,0
100,0,1773659939342,0,0.000366,0.000122,-0.000244,128.173828,6.103516,-20.751953,91,0.000000,0
100,0,1773659939390,0,0.000122,0.000610,-0.000366,144.042969,3.662109,-52.490234,91,0.000000,0
100,0,1773659939390,0,-0.000122,0.000854,-0.000366,8.544922,-42.724609,-89.111328,91,0.000000,0
100,0,1773659939392,0,0.000000,0.000244,-0.000244,-80.566406,-124.511719,0.597897,91,0.000000,0
100,0,1773659939438,0,0.000122,0.000122,-0.000244,-120.849609,-164.794922,-109.863281,91,0.000000,0
100,0,1773659939440,0,0.000244,0.000244,-0.000244,-194.091797,-217.285156,-151.367188,91,0.000000,0
100,0,1773659939441,0,0.000366,0.000122,-0.000244,-190.429688,-233.154297,1.940130,91,0.000000,0
100,0,1773659939486,0,0.000488,0.000000,-0.000244,-194.091797,-255.126953,2.600594,91,0.000000,0
100,0,1773659939487,0,0.000854,0.000000,-0.000244,-174.560547,-283.203125,3.197142,91,0.000000,0
100,0,1773659939487,0,0.000977,0.000000,-0.000244,-168.457031,-285.644531,3.452806,91,0.000000,0
100,0,1773659939535,0,0.001221,0.000000,-0.000244,-157.470703,-281.982422,-274.658203,91,0.000000,0
100,0,1773659939536,0,0.001343,-0.000122,-0.000244,-145.263672,-281.982422,4.070659,91,0.000000,0
100,0,1773659939537,0,0.001465,-0.000122,-0.000244,-141.601562,-285.644531,4.262406,91,0.000000,0
100,0,1773659939583,0,0.001831,-0.000122,-0.000366,-114.746094,-301.513672,4.539375,91,0.000000,0
100,0,1773659939633,0,0.001831,-0.000122,-0.000488,-109.863281,-316.162109,4.518070,91,0.000000,0
100,0,1773659939633,0,0.001831,-0.000244,-0.000610,-123.291016,-324.707031,4.347628,91,0.000000,0
100,0,1773659939634,0,0.001831,-0.000732,-0.000366,-136.718750,-319.824219,4.134574,91,0.000000,0
100,0,1773659939681,0,0.001831,-0.000122,0.000244,-109.863281,-240.478516,-250.244141,91,0.000000,0
100,0,1773659939682,0,0.001831,-0.000732,0.000244,-212.402344,-156.250000,2.430151,91,0.000000,0
100,0,1773659939683,0,0.001343,-0.001831,0.001099,45.166016,-74.462891,-0.211704,91,0.000000,0
100,0,1773659939730,0,0.001099,-0.000854,0.000854,-2.441406,2.441406,87.890625,91,0.000000,0
100,0,1773659939734,0,0.001465,-0.000977,0.000488,-40.283203,120.849609,189.208984,91,0.000000,0
100,0,1773659939736,0,0.001465,-0.000244,-0.000488,0.000000,120.849609,-3.748382,91,0.000000,0
100,0,1773659939780,0,0.000732,0.001831,-0.001343,39.062500,80.566406,78.125000,91,0.000000,0
100,0,1773659939781,0,0.001831,0.000122,0.000610,-211.181641,123.291016,-3.812298,91,0.000000,0
100,0,1773659939782,0,0.001831,-0.000977,0.000244,-112.304688,95.214844,-4.195793,91,0.000000,0
100,0,1773659939828,0,0.001709,0.000000,-0.000122,58.593750,74.462891,-4.472762,91,0.000000,0
100,0,1773659939828,0,0.001221,-0.000610,-0.000366,-258.789062,-4.882812,-6.560680,91,0.000000,0
100,0,1773659939829,0,0.001221,-0.000122,-0.000122,-307.617188,10.986328,-5.516721,91,0.000000,0
100,0,1773659939925,0,0.000366,-0.000732,-0.000610,-100.097656,30.517578,191.650391,91,0.000000,0
100,0,1773659939928,0,0.001099,-0.000488,-0.000122,10.986328,95.214844,101.318359,91,0.000000,0
100,0,1773659939928,0,0.000977,-0.000366,-0.000122,48.828125,97.656250,80.566406,91,0.000000,0
100,0,1773659939975,0,0.000854,0.000000,-0.000244,50.048828,91.552734,48.828125,91,0.000000,0
100,0,1773659939975,0,0.000977,0.000000,0.000000,52.490234,80.566406,-1.426106,91,0.000000,0
100,0,1773659939977,0,0.000854,0.000122,0.000000,-41.503906,39.062500,-1.639159,91,0.000000,0
100,0,1773659940024,0,0.000854,0.000000,-0.000122,-36.621094,23.193359,-1.681769,91,0.000000,0
100,0,1773659940025,0,0.000854,-0.000122,-0.000244,13.427734,28.076172,-1.490022,91,0.000000,0
100,0,1773659940026,0,0.000854,-0.000122,-0.000244,36.621094,36.621094,-1.383495,91,0.000000,0
100,0,1773659940070,0,0.000977,0.000000,-0.000122,63.476562,50.048828,14.648438,91,0.000000,0
100,0,1773659940072,0,0.000854,0.000122,0.000000,32.958984,39.062500,24.414062,91,0.000000,0
100,0,1773659940072,0,0.000854,0.000122,0.000000,12.207031,36.621094,-1.532632,91,0.000000,0
100,0,1773659940121,0,0.000854,0.000000,-0.000122,-18.310547,30.517578,40.283203,91,0.000000,0
100,0,1773659940125,0,0.000977,0.000000,-0.000244,0.000000,48.828125,41.503906,91,0.000000,0
100,0,1773659940126,0,0.000854,0.000000,-0.000244,4.882812,54.931641,40.283203,91,0.000000,0
100,0,1773659940170,0,0.000854,0.000000,-0.000122,7.324219,58.593750,-1.745685,91,0.000000,0
100,0,1773659940172,0,0.000977,0.000000,0.000000,-2.441406,58.593750,46.386719,91,0.000000,0
100,0,1773659940174,0,0.000977,0.000000,0.000000,-12.207031,58.593750,-1.873517,91,0.000000,0
100,0,1773659940266,0,0.000977,0.000000,0.000000,-19.531250,58.593750,-1.937433,91,0.000000,0
100,0,1773659940268,0,0.000977,0.000000,-0.000122,-10.986328,64.697266,-1.937433,91,0.000000,0
100,0,1773659940268,0,0.000977,-0.000122,-0.000122,-6.103516,69.580078,-1.958738,91,0.000000,0
100,0,1773659940315,0,0.000977,0.000000,-0.000122,1.220703,74.462891,-2.022654,91,0.000000,0
100,0,1773659940318,0,0.001099,0.000122,0.000000,0.000000,81.787109,74.462891,91,0.000000,0
100,0,1773659940318,0,0.001343,-0.000122,-0.000122,0.000000,104.980469,-2.597897,91,0.000000,0
100,0,1773659940365,0,0.001343,0.000000,-0.000122,18.310547,118.408203,98.876953,91,0.000000,0
100,0,1773659940365,0,0.001587,0.000000,-0.000122,48.828125,140.380859,-2.917476,91,0.000000,0
100,0,1773659940366,0,0.001587,0.000000,-0.000244,54.931641,152.587891,-2.981392,91,0.000000,0
100,0,1773659940413,0,0.001831,0.000122,-0.000488,89.111328,172.119141,118.408203,91,0.000000,0
100,0,1773659940415,0,0.001831,0.000366,-0.000854,130.615234,198.974609,-3.087918,91,0.000000,0
100,0,1773659940416,0,0.001831,0.000488,-0.001099,129.394531,198.974609,-3.173139,91,0.000000,0
100,0,1773659940461,0,0.001343,0.000122,-0.001099,103.759766,181.884766,-3.386192,91,0.000000,0
100,0,1773659940465,0,0.001099,-0.000366,-0.000244,72.021484,96.435547,114.746094,91,0.000000,0
100,0,1773659940466,0,0.001465,-0.000732,0.000000,100.097656,118.408203,-2.619202,91,0.000000,0
100,0,1773659940510,0,0.001099,-0.000244,-0.000488,58.593750,89.111328,-1.980043,91,0.000000,0
100,0,1773659940511,0,0.000366,0.000610,-0.000610,47.607422,73.242188,-0.446063,91,0.000000,0
100,0,1773659940511,0,0.000488,0.000244,0.000000,68.359375,91.552734,0.065264,91,0.000000,0
100,0,1773659940560,0,0.000488,-0.000244,0.000244,0.000000,48.828125,-0.424757,91,0.000000,0
100,0,1773659940561,0,0.000000,0.000488,-0.000488,7.324219,40.283203,-92.773438,91,0.000000,0
100,0,1773659940562,0,0.000000,0.000854,-0.000366,-61.035156,26.855469,1.024002,91,0.000000,0
100,0,1773659940608,0,0.000000,0.000488,-0.000244,-202.636719,-20.751953,-135.498047,91,0.000000,0
100,0,1773659940609,0,0.000122,0.000000,-0.000244,-266.113281,-58.593750,-162.353516,91,0.000000,0
100,0,1773659940610,0,0.000244,0.000000,-0.000244,-280.761719,-65.917969,2.110572,91,0.000000,0
100,0,1773659940656,0,0.000244,0.000000,-0.000488,-313.720703,-93.994141,-211.181641,91,0.000000,0
100,0,1773659940656,0,0.000366,-0.000122,-0.000610,-345.458984,-117.187500,-231.933594,91,0.000000,0
100,0,1773659940659,0,0.000610,-0.000244,-0.000610,-357.666016,-124.511719,3.261058,91,0.000000,0
100,0,1773659940705,0,0.000854,-0.000488,-0.000732,-367.431641,-141.601562,3.580637,91,0.000000,0
100,0,1773659940707,0,0.001099,-0.000732,-0.000732,-357.666016,-141.601562,-267.333984,91,0.000000,0
100,0,1773659940709,0,0.001221,-0.000854,-0.000854,-344.238281,-141.601562,-267.333984,91,0.000000,0
100,0,1773659940802,0,0.001343,-0.000854,-0.000854,-313.720703,-144.042969,3.601943,91,0.000000,0
100,0,1773659940803,0,0.001221,-0.000854,-0.000977,-313.720703,-167.236328,3.261058,91,0.000000,0
100,0,1773659940803,0,0.001343,-0.000977,-0.000977,-312.500000,-180.664062,3.133226,91,0.000000,0
100,0,1773659940850,0,0.001343,-0.000977,-0.001099,-291.748047,-206.298828,2.984089,91,0.000000,0
100,0,1773659940852,0,0.001709,-0.000977,-0.000732,-213.623047,-264.892578,1.833603,91,0.000000,0
100,0,1773659940852,0,0.001709,-0.000977,-0.000366,-194.091797,-253.906250,1.599245,91,0.000000,0
100,0,1773659940900,0,0.001831,-0.000732,0.000122,-40.283203,-181.884766,-169.677734,91,0.000000,0
100,0,1773659940901,0,0.001465,-0.000366,0.000000,-89.111328,-167.236328,-136.718750,91,0.000000,0
100,0,1773659940902,0,0.001465,-0.000732,0.000000,-124.511719,-157.470703,-108.642578,91,0.000000,0
100,0,1773659940949,0,0.001343,-0.001099,0.000122,-128.173828,-125.732422,-43.945312,91,0.000000,0
100,0,1773659940951,0,0.001099,-0.001221,0.000488,-119.628906,-111.083984,-1.276969,91,0.000000,0
100,0,1773659940953,0,0.001221,-0.001221,0.000610,-87.890625,-102.539062,-1.766990,91,0.000000,0
100,0,1773659940998,0,0.001343,-0.000977,0.000732,-8.544922,-34.179688,-2.448760,91,0.000000,0
100,0,1773659940999,0,0.001221,-0.000488,0.000732,2.441406,34.179688,-3.109224,91,0.000000,0
100,0,1773659940999,0,0.001465,0.000000,0.000732,6.103516,35.400391,-2.832255,91,0.000000,0
100,0,1773659941046,0,0.000977,0.001221,-0.000122,-107.421875,98.876953,123.291016,91,0.000000,0
100,0,1773659941046,0,0.001343,0.001831,0.000000,-156.250000,53.710938,-2.874866,91,0.000000,0
100,0,1773659941048,0,0.001587,0.001099,0.000732,-307.617188,24.414062,-4.004045,91,0.000000,0
100,0,1773659941095,0,0.001831,-0.001465,0.000000,-131.835938,-2.441406,-4.877563,91,0.000000,0
100,0,1773659941096,0,0.001587,-0.000366,0.000000,-118.408203,3.662109,-5.559332,91,0.000000,0
100,0,1773659941099,0,0.001099,0.000122,-0.000244,-167.236328,19.531250,-4.792341,91,0.000000,0
100,0,1773659941144,0,0.000366,-0.000732,-0.000488,-111.083984,17.089844,-3.982740,91,0.000000,0
100,0,1773659941148,0,0.000977,-0.000366,-0.000366,25.634766,76.904297,-2.597897,91,0.000000,0
100,0,1773659941150,0,0.000854,-0.000122,-0.000122,47.607422,85.449219,-2.342233,91,0.000000,0
100,0,1773659941193,0,0.000732,0.000244,-0.000244,36.621094,78.125000,-2.129180,91,0.000000,0
100,0,1773659941195,0,0.000854,0.000000,0.000000,-42.724609,52.490234,-1.873517,91,0.000000,0
100,0,1773659941196,0,0.000854,0.000000,0.000000,-29.296875,45.166016,-1.830906,91,0.000000,0
100,0,1773659941241,0,0.000854,0.000000,0.000000,-53.710938,19.531250,-1.809601,91,0.000000,0
100,0,1773659941243,0,0.000977,0.000000,0.000000,-43.945312,25.634766,-1.703074,91,0.000000,0
100,0,1773659941246,0,0.000854,0.000000,0.000000,-36.621094,21.972656,-1.660464,91,0.000000,0
100,0,1773659941290,0,0.000854,-0.000122,-0.000122,-18.310547,20.751953,26.855469,91,0.000000,0
100,0,1773659941291,0,0.000854,0.000000,-0.000244,20.751953,31.738281,18.310547,91,0.000000,0
100,0,1773659941293,0,0.000854,0.000000,-0.000122,28.076172,36.621094,-1.319579,91,0.000000,0
100,0,1773659941338,0,0.000854,0.000122,0.000000,1.220703,36.621094,-1.426106,91,0.000000,0
100,0,1773659941387,0,0.000854,0.000122,0.000000,-29.296875,30.517578,34.179688,91,0.000000,0
100,0,1773659941390,0,0.000854,0.000000,0.000000,-35.400391,30.517578,35.400391,91,0.000000,0
100,0,1773659941391,0,0.000977,0.000000,0.000000,-9.765625,36.621094,30.517578,91,0.000000,0
100,0,1773659941436,0,0.000977,0.000000,-0.000122,1.220703,42.724609,24.414062,91,0.000000,0
100,0,1773659941438,0,0.000854,0.000000,0.000000,3.662109,42.724609,25.634766,91,0.000000,0
100,0,1773659941440,0,0.000977,0.000000,-0.000122,-12.207031,48.828125,32.958984,91,0.000000,0
100,0,1773659941485,0,0.000977,0.000000,0.000000,0.000000,54.931641,36.621094,91,0.000000,0
100,0,1773659941486,0,0.000977,0.000000,0.000000,-1.220703,58.593750,41.503906,91,0.000000,0
100,0,1773659941488,0,0.000977,0.000000,0.000000,-1.220703,64.697266,-1.766990,91,0.000000,0
100,0,1773659941534,0,0.001099,0.000000,0.000000,-3.662109,72.021484,-1.916127,91,0.000000,0
100,0,1773659941535,0,0.001099,0.000000,-0.000122,-15.869141,80.566406,-2.129180,91,0.000000,0
100,0,1773659941537,0,0.001099,0.000000,0.000000,-23.193359,89.111328,-2.235707,91,0.000000,0
100,0,1773659941583,0,0.001221,0.000122,0.000000,-30.517578,92.773438,78.125000,91,0.000000,0
100,0,1773659941586,0,0.001343,0.000000,0.000000,-42.724609,107.421875,87.890625,91,0.000000,0
100,0,1773659941586,0,0.001221,0.000000,0.000000,-41.503906,114.746094,89.111328,91,0.000000,0
100,0,1773659941631,0,0.001343,0.000000,-0.000122,-23.193359,125.732422,-2.597897,91,0.000000,0
100,0,1773659941632,0,0.001343,0.000000,-0.000122,-10.986328,131.835938,-2.597897,91,0.000000,0
100,0,1773659941633,0,0.001465,0.000000,-0.000244,-3.662109,141.601562,-2.576591,91,0.000000,0
100,0,1773659941729,0,0.001465,0.000000,-0.000366,23.193359,148.925781,-2.661813,91,0.000000,0
100,0,1773659941730,0,0.001587,0.000122,-0.000732,61.035156,166.015625,93.994141,91,0.000000,0
100,0,1773659941732,0,0.001587,0.000244,-0.000732,76.904297,178.222656,-2.619202,91,0.000000,0
100,0,1773659941778,0,0.001343,0.000122,-0.000854,89.111328,179.443359,96.435547,91,0.000000,0
100,0,1773659941779,0,0.001587,-0.000488,-0.000366,58.593750,150.146484,109.863281,91,0.000000,0
100,0,1773659941780,0,0.000854,0.000244,-0.000488,-20.751953,129.394531,21.972656,91,0.000000,0
100,0,1773659941826,0,0.000854,-0.000610,0.000366,-129.394531,111.083984,-2.107875,91,0.000000,0
100,0,1773659941827,0,0.000610,-0.000122,-0.000366,-147.705078,76.904297,-1.255663,91,0.000000,0
100,0,1773659941829,0,0.000244,0.000244,-0.000488,-137.939453,62.255859,-0.680421,91,0.000000,0
100,0,1773659941876,0,0.000122,0.000488,-0.000488,-200.195312,32.958984,-74.462891,91,0.000000,0
100,0,1773659941878,0,0.000122,0.000000,-0.000366,-205.078125,-24.414062,-114.746094,91,0.000000,0
100,0,1773659941878,0,0.000122,0.000000,-0.000366,-197.753906,-43.945312,1.173139,91,0.000000,0
100,0,1773659941924,0,0.000244,-0.000122,-0.000488,-180.664062,-83.007812,1.833603,91,0.000000,0
100,0,1773659941925,0,0.000366,-0.000122,-0.000366,-152.587891,-118.408203,2.494067,91,0.000000,0
100,0,1773659941927,0,0.000488,-0.000122,-0.000366,-147.705078,-131.835938,2.728426,91,0.000000,0
100,0,1773659941972,0,0.000610,-0.000122,-0.000366,-157.470703,-164.794922,3.026700,91,0.000000,0
100,0,1773659941974,0,0.000854,-0.000122,-0.000488,-185.546875,-201.416016,3.175837,91,0.000000,0
100,0,1773659941975,0,0.000977,-0.000244,-0.000488,-198.974609,-207.519531,3.239752,91,0.000000,0
100,0,1773659942021,0,0.001099,-0.000244,-0.000610,-219.726562,-225.830078,3.282363,91,0.000000,0
100,0,1773659942022,0,0.001221,-0.000366,-0.000732,-231.933594,-242.919922,3.239752,91,0.000000,0
100,0,1773659942025,0,0.001221,-0.000366,-0.000732,-239.257812,-255.126953,3.239752,91,0.000000,0
100,0,1773659942070,0,0.001465,-0.000488,-0.000732,-235.595703,-277.099609,3.218447,91,0.000000,0
100,0,1773659942072,0,0.001587,-0.000488,-0.000854,-220.947266,-294.189453,-239.257812,91,0.000000,0
100,0,1773659942073,0,0.001709,-0.000488,-0.000854,-217.285156,-300.292969,-234.375000,91,0.000000,0
100,0,1773659942119,0,0.001831,-0.000732,-0.000610,-222.167969,-302.734375,2.813647,91,0.000000,0
100,0,1773659942121,0,0.001831,-0.001221,-0.000366,-172.119141,-289.306641,-197.753906,91,0.000000,0
100,0,1773659942122,0,0.001831,-0.001221,0.000000,-87.890625,-256.347656,2.707120,91,0.000000,0
100,0,1773659942167,0,0.001831,-0.000488,0.000000,-64.697266,-194.091797,-180.664062,91,0.000000,0
100,0,1773659942169,0,0.001831,-0.001221,0.000244,-93.994141,-136.718750,-128.173828,91,0.000000,0
100,0,1773659942170,0,0.001465,-0.001465,0.000244,-81.787109,-120.849609,0.747034,91,0.000000,0
100,0,1773659942216,0,0.001221,-0.001709,0.000610,-25.634766,-93.994141,-0.808252,91,0.000000,0
100,0,1773659942217,0,0.001465,-0.001465,0.000854,17.089844,-50.048828,-2.001348,91,0.000000,0
100,0,1773659942217,0,0.001465,-0.001343,0.000854,37.841797,-10.986328,-2.470065,91,0.000000,0
100,0,1773659942265,0,0.001465,-0.000977,0.000732,51.269531,58.593750,-3.215750,91,0.000000,0
100,0,1773659942266,0,0.001831,0.000488,0.000732,39.062500,141.601562,126.953125,91,0.000000,0
100,0,1773659942268,0,0.001221,0.001831,-0.000488,0.000000,119.628906,-2.299623,91,0.000000,0
100,0,1773659942315,0,0.001465,0.001831,0.000122,-289.306641,87.890625,164.794922,91,0.000000,0
100,0,1773659942315,0,0.001831,-0.001831,-0.000122,-296.630859,26.855469,-5.303668,91,0.000000,0
100,0,1773659942317,0,0.001709,-0.000977,0.000122,-34.179688,39.062500,-4.898868,91,0.000000,0
100,0,1773659942363,0,0.000610,0.000488,-0.000610,-135.498047,15.869141,244.140625,91,0.000000,0
100,0,1773659942366,0,0.000488,-0.000854,-0.000488,-228.271484,-12.207031,194.091797,91,0.000000,0
100,0,1773659942366,0,0.001099,-0.001343,-0.000122,-97.656250,78.125000,-3.599245,91,0.000000,0
100,0,1773659942411,0,0.000732,-0.000122,-0.000244,90.332031,100.097656,68.359375,91,0.000000,0
100,0,1773659942411,0,0.000977,0.000000,0.000000,129.394531,96.435547,48.828125,91,0.000000,0
100,0,1773659942413,0,0.001099,0.000000,0.000000,125.732422,103.759766,-1.809601,91,0.000000,0
100,0,1773659942460,0,0.000732,0.000488,-0.000122,18.310547,42.724609,-2.107875,91,0.000000,0
100,0,1773659942461,0,0.000854,0.000122,-0.000122,-76.904297,0.000000,-2.576591,91,0.000000,0
100,0,1773659942465,0,0.000977,0.000000,-0.000122,-81.787109,7.324219,-2.576591,91,0.000000,0
100,0,1773659942509,0,0.000854,-0.000122,-0.000366,-30.517578,31.738281,-2.299623,91,0.000000,0
100,0,1773659942512,0,0.000854,-0.000366,-0.000366,36.621094,47.607422,-1.916127,91,0.000000,0
100,0,1773659942514,0,0.000854,-0.000366,-0.000244,46.386719,56.152344,-1.724380,91,0.000000,0
100,0,1773659942558,0,0.000854,0.000000,-0.000122,54.931641,59.814453,-1.745685,91,0.000000,0
100,0,1773659942560,0,0.000977,0.000244,0.000000,-18.310547,42.724609,-2.043959,91,0.000000,0
100,0,1773659942560,0,0.000977,0.000122,0.000000,-45.166016,34.179688,-2.107875,91,0.000000,0
100,0,1773659942606,0,0.000977,-0.000244,-0.000122,-18.310547,42.724609,-1.916127,91,0.000000,0
100,0,1773659942606,0,0.000854,-0.000122,-0.000122,19.531250,48.828125,-1.745685,91,0.000000,0
100,0,1773659942607,0,0.000854,-0.000122,-0.000122,23.193359,46.386719,-1.745685,91,0.000000,0
100,0,1773659942655,0,0.000854,0.000000,-0.000122,6.103516,50.048828,47.607422,91,0.000000,0
100,0,1773659942656,0,0.000977,0.000000,0.000000,-4.882812,42.724609,53.710938,91,0.000000,0
100,0,1773659942658,0,0.000977,-0.000122,0.000000,-2.441406,46.386719,-1.937433,91,0.000000,0
100,0,1773659942705,0,0.000977,-0.000122,-0.000122,1.220703,46.386719,53.710938,91,0.000000,0
100,0,1773659942705,0,0.000977,-0.000122,-0.000122,14.648438,50.048828,-1.937433,91,0.000000,0
100,0,1773659942707,0,0.000977,-0.000122,-0.000122,17.089844,50.048828,-1.958738,91,0.000000,0
100,0,1773659942753,0,0.000977,-0.000122,0.000000,29.296875,54.931641,-1.980043,91,0.000000,0
100,0,1773659942755,0,0.001099,0.000000,-0.000122,29.296875,62.255859,63.476562,91,0.000000,0
100,0,1773659942757,0,0.001099,0.000000,-0.000122,28.076172,64.697266,67.138672,91,0.000000,0
100,0,1773659942801,0,0.001099,0.000000,0.000000,30.517578,78.125000,-2.427454,91,0.000000,0
100,0,1773659942803,0,0.001221,0.000122,0.000000,19.531250,89.111328,-2.725729,91,0.000000,0
100,0,1773659942805,0,0.001221,0.000122,0.000000,3.662109,98.876953,-2.896171,91,0.000000,0
100,0,1773659942850,0,0.001343,0.000000,-0.000122,-2.441406,112.304688,-3.109224,91,0.000000,0
100,0,1773659942852,0,0.001343,-0.000244,-0.000244,26.855469,123.291016,123.291016,91,0.000000,0
100,0,1773659942853,0,0.001465,-0.000122,-0.000244,48.828125,129.394531,-3.130529,91,0.000000,0
100,0,1773659942899,0,0.001465,0.000000,-0.000366,74.462891,144.042969,-3.151834,91,0.000000,0
100,0,1773659942900,0,0.001587,0.000122,-0.000610,100.097656,155.029297,-3.215750,91,0.000000,0
100,0,1773659942902,0,0.001709,0.000244,-0.000732,118.408203,157.470703,-3.237055,91,0.000000,0
100,0,1773659942947,0,0.001709,0.000244,-0.001099,167.236328,174.560547,-3.300971,91,0.000000,0
100,0,1773659942950,0,0.001465,0.000000,-0.000732,109.863281,118.408203,162.353516,91,0.000000,0
100,0,1773659942951,0,0.001831,-0.000488,-0.000122,108.642578,124.511719,166.015625,91,0.000000,0
100,0,1773659943045,0,0.001587,0.000000,-0.000610,140.380859,109.863281,-3.151834,91,0.000000,0
100,0,1773659943048,0,0.001221,0.000244,-0.000732,79.345703,123.291016,69.580078,91,0.000000,0
100,0,1773659943048,0,0.000610,0.000488,-0.000977,69.580078,102.539062,-1.532632,91,0.000000,0
100,0,1773659943095,0,0.000854,-0.000732,0.000366,126.953125,80.566406,76.904297,91,0.000000,0
100,0,1773659943095,0,-0.000122,0.000244,-0.000366,-64.697266,-85.449219,0.320928,91,0.000000,0
100,0,1773659943097,0,0.000000,0.000122,-0.000244,-65.917969,-124.511719,0.427454,91,0.000000,0
100,0,1773659943143,0,0.000122,0.000122,-0.000244,-76.904297,-169.677734,0.832255,91,0.000000,0
100,0,1773659943146,0,0.000122,0.000122,-0.000244,-87.890625,-213.623047,1.364887,91,0.000000,0
