sessionState,sensorTimeMicros,phoneTimeMs,sampleNumber,aX,aY,aZ,gX,gY,gZ,batteryCharge,batteryVoltage,rssi
100,0,1773659041323,0,0.000854,0.000000,0.000000,25.634766,-122.070312,250.244141,86,0.000000,0
100,0,1773659041323,0,0.000977,-0.000122,0.000000,40.283203,-129.394531,3.665858,86,0.000000,0
100,0,1773659041325,0,0.001099,-0.000122,0.000000,51.269531,-131.835938,3.857606,86,0.000000,0
100,0,1773659041367,0,0.001099,0.000000,0.000000,67.138672,-133.056641,4.283711,86,0.000000,0
100,0,1773659041368,0,0.001221,-0.000122,0.000000,84.228516,-133.056641,4.645902,86,0.000000,0
100,0,1773659041371,0,0.001343,-0.000122,0.000000,95.214844,-131.835938,332.031250,86,0.000000,0
100,0,1773659041415,0,0.001465,0.000000,-0.000122,111.083984,-122.070312,346.679688,86,0.000000,0
100,0,1773659041465,0,0.001587,0.000000,-0.000122,103.759766,-113.525391,5.242450,86,0.000000,0
100,0,1773659041466,0,0.001709,0.000000,-0.000122,98.876953,-111.083984,360.107422,86,0.000000,0
100,0,1773659041466,0,0.001831,0.000000,-0.000122,98.876953,-100.097656,358.886719,86,0.000000,0
100,0,1773659041512,0,0.001831,0.000488,-0.000244,89.111328,-79.345703,4.731122,86,0.000000,0
100,0,1773659041513,0,0.001343,0.001343,0.000000,-58.593750,-79.345703,189.208984,86,0.000000,0
100,0,1773659041513,0,0.001221,0.001221,0.000244,-76.904297,-62.255859,141.601562,86,0.000000,0
100,0,1773659041562,0,0.001099,0.001343,0.000122,-53.710938,-13.427734,-0.403452,86,0.000000,0
100,0,1773659041562,0,0.000977,0.000977,0.000000,-45.166016,17.089844,-2.406149,86,0.000000,0
100,0,1773659041563,0,0.001099,0.000854,0.000000,-29.296875,23.193359,-3.194445,86,0.000000,0
100,0,1773659041610,0,0.001221,0.000732,0.000000,-13.427734,28.076172,-191.650391,86,0.000000,0
100,0,1773659041612,0,0.001343,0.000000,-0.000488,-9.765625,19.531250,-200.195312,86,0.000000,0
100,0,1773659041612,0,0.001343,-0.001831,0.000244,-85.449219,57.373047,-3.705772,86,0.000000,0
100,0,1773659041658,0,0.001343,-0.001709,0.000610,156.250000,40.283203,-150.146484,86,0.000000,0
100,0,1773659041660,0,0.001709,0.000122,0.000122,213.623047,40.283203,-170.898438,86,0.000000,0
100,0,1773659041661,0,0.001831,0.000488,0.000122,157.470703,25.634766,-196.533203,86,0.000000,0
100,0,1773659041708,0,0.001831,0.000488,0.000000,108.642578,-13.427734,-231.933594,86,0.000000,0
100,0,1773659041709,0,0.000488,-0.000244,-0.000366,61.035156,-30.517578,-4.451457,86,0.000000,0
100,0,1773659041710,0,0.000244,-0.000366,-0.000732,122.070312,-39.062500,-4.131877,86,0.000000,0
100,0,1773659041757,0,0.001099,0.001099,-0.000122,62.255859,-12.207031,-3.705772,86,0.000000,0
100,0,1773659041758,0,0.001099,0.000000,-0.000244,-102.539062,26.855469,-107.421875,86,0.000000,0
100,0,1773659041758,0,0.000854,0.000000,-0.000122,-101.318359,32.958984,-2.768339,86,0.000000,0
100,0,1773659041806,0,0.000977,0.000000,0.000000,-96.435547,15.869141,-86.669922,86,0.000000,0
100,0,1773659041807,0,0.000732,-0.000244,0.000000,-31.738281,-7.324219,-76.904297,86,0.000000,0
100,0,1773659041807,0,0.000854,-0.000122,0.000000,19.531250,-20.751953,-2.299623,86,0.000000,0
100,0,1773659041854,0,0.000977,0.000244,-0.000244,17.089844,-15.869141,-2.107875,86,0.000000,0
100,0,1773659041856,0,0.000977,0.000000,-0.000244,-46.386719,-1.220703,-48.828125,86,0.000000,0
100,0,1773659041856,0,0.000854,0.000000,-0.000366,-56.152344,1.220703,-1.788296,86,0.000000,0
100,0,1773659041903,0,0.000854,0.000000,-0.000244,-75.683594,8.544922,-1.617853,86,0.000000,0
100,0,1773659041904,0,0.000854,-0.000122,-0.000122,-46.386719,2.441406,-1.660464,86,0.000000,0
100,0,1773659041906,0,0.000977,-0.000122,0.000000,-21.972656,0.000000,-42.724609,86,0.000000,0
100,0,1773659041951,0,0.000977,0.000000,-0.000122,-8.544922,1.220703,-1.745685,86,0.000000,0
100,0,1773659041952,0,0.000854,0.000122,-0.000244,-52.490234,10.986328,-1.660464,86,0.000000,0
100,0,1773659041953,0,0.000854,0.000000,-0.000244,-64.697266,13.427734,-35.400391,86,0.000000,0
100,0,1773659042000,0,0.000854,0.000000,-0.000122,-51.269531,14.648438,-37.841797,86,0.000000,0
100,0,1773659042001,0,0.000977,0.000000,-0.000122,-30.517578,17.089844,-42.724609,86,0.000000,0
100,0,1773659042002,0,0.000977,0.000000,-0.000122,-20.751953,17.089844,-1.809601,86,0.000000,0
100,0,1773659042048,0,0.000977,0.000000,-0.000122,-13.427734,18.310547,-1.852211,86,0.000000,0
100,0,1773659042049,0,0.000977,0.000000,-0.000122,-12.207031,20.751953,-1.937433,86,0.000000,0
100,0,1773659042051,0,0.000977,0.000000,-0.000122,-12.207031,20.751953,-2.022654,86,0.000000,0
100,0,1773659042098,0,0.000977,0.000000,-0.000122,1.220703,28.076172,-68.359375,86,0.000000,0
100,0,1773659042099,0,0.001099,0.000000,-0.000122,4.882812,28.076172,-84.228516,86,0.000000,0
100,0,1773659042100,0,0.001099,0.000000,-0.000122,-20.751953,26.855469,-90.332031,86,0.000000,0
100,0,1773659042197,0,0.001099,0.000000,-0.000122,-10.986328,29.296875,-2.810950,86,0.000000,0
100,0,1773659042197,0,0.001221,0.000000,-0.000122,-17.089844,30.517578,-118.408203,86,0.000000,0
100,0,1773659042198,0,0.001221,0.000000,-0.000122,-23.193359,31.738281,-128.173828,86,0.000000,0
100,0,1773659042199,0,0.001343,0.000000,-0.000122,-37.841797,34.179688,-3.577940,86,0.000000,0
100,0,1773659042245,0,0.001343,0.000000,-0.000122,-73.242188,37.841797,-4.131877,86,0.000000,0
100,0,1773659042246,0,0.001831,-0.000244,-0.000366,-183.105469,41.503906,-4.579288,86,0.000000,0
100,0,1773659042247,0,0.001831,-0.000244,-0.000488,-220.947266,42.724609,-4.472762,86,0.000000,0
100,0,1773659042293,0,0.001587,-0.000977,-0.000610,-225.830078,39.062500,-192.871094,86,0.000000,0
100,0,1773659042294,0,0.001221,-0.000244,-0.000244,-72.021484,31.738281,-4.643205,86,0.000000,0
100,0,1773659042295,0,0.001343,0.000488,-0.000122,-30.517578,51.269531,-4.685815,86,0.000000,0
100,0,1773659042342,0,0.001465,0.000366,-0.000122,-39.062500,65.917969,-196.533203,86,0.000000,0
100,0,1773659042342,0,0.001099,0.000000,-0.000366,-54.931641,45.166016,-3.492719,86,0.000000,0
100,0,1773659042343,0,0.000854,-0.000244,-0.000366,-86.669922,51.269531,-2.938781,86,0.000000,0
100,0,1773659042389,0,0.000000,-0.000488,-0.000488,-54.931641,-8.544922,-50.048828,86,0.000000,0
100,0,1773659042391,0,0.000122,-0.000732,-0.000244,-96.435547,-18.310547,29.296875,86,0.000000,0
100,0,1773659042392,0,0.000244,-0.000732,0.000000,-87.890625,-23.193359,62.255859,86,0.000000,0
100,0,1773659042438,0,0.000244,-0.000488,0.000000,-28.076172,-36.621094,0.810950,86,0.000000,0
100,0,1773659042440,0,0.000366,-0.000244,-0.000122,-12.207031,-63.476562,150.146484,86,0.000000,0
100,0,1773659042440,0,0.000366,-0.000244,0.000000,-12.207031,-73.242188,2.004046,86,0.000000,0
100,0,1773659042487,0,0.000488,-0.000366,0.000000,20.751953,-92.773438,208.740234,86,0.000000,0
100,0,1773659042488,0,0.000610,-0.000244,0.000000,51.269531,-101.318359,3.282363,86,0.000000,0
100,0,1773659042488,0,0.000610,-0.000244,0.000000,65.917969,-106.201172,3.623248,86,0.000000,0
100,0,1773659042536,0,0.000732,-0.000244,0.000000,97.656250,-120.849609,4.155880,86,0.000000,0
100,0,1773659042537,0,0.000977,-0.000122,-0.000122,120.849609,-125.732422,4.709817,86,0.000000,0
100,0,1773659042538,0,0.000977,0.000000,-0.000122,122.070312,-125.732422,4.965481,86,0.000000,0
100,0,1773659042584,0,0.001221,0.000000,-0.000122,109.863281,-122.070312,369.873047,86,0.000000,0
100,0,1773659042586,0,0.001465,-0.000122,-0.000122,106.201172,-114.746094,5.924219,86,0.000000,0
100,0,1773659042586,0,0.001587,0.000000,-0.000122,101.318359,-109.863281,6.052051,86,0.000000,0
100,0,1773659042633,0,0.001831,0.000000,-0.000122,91.552734,-101.318359,418.701172,86,0.000000,0
100,0,1773659042634,0,0.001831,0.000000,-0.000244,102.539062,-96.435547,6.265103,86,0.000000,0
100,0,1773659042635,0,0.001831,0.000244,-0.000122,113.525391,-91.552734,6.137272,86,0.000000,0
100,0,1773659042683,0,0.001831,0.000732,-0.000122,97.656250,-79.345703,5.583334,86,0.000000,0
100,0,1773659042684,0,0.001831,0.000977,-0.000122,72.021484,-65.917969,4.155880,86,0.000000,0
100,0,1773659042685,0,0.001465,0.001221,-0.000244,70.800781,-64.697266,3.239752,86,0.000000,0
100,0,1773659042731,0,0.001221,0.001831,0.000000,-12.207031,-41.503906,1.450108,86,0.000000,0
100,0,1773659042733,0,0.001099,0.001709,0.000000,-56.152344,-15.869141,-0.296925,86,0.000000,0
100,0,1773659042735,0,0.001099,0.001709,0.000000,-65.917969,1.220703,-21.972656,86,0.000000,0
100,0,1773659042828,0,0.001099,0.001343,0.000122,-72.021484,36.621094,-152.587891,86,0.000000,0
100,0,1773659042830,0,0.001221,0.001099,0.000122,-40.283203,48.828125,-234.375000,86,0.000000,0
100,0,1773659042831,0,0.001465,-0.000122,-0.000610,-51.269531,37.841797,-4.515373,86,0.000000,0
100,0,1773659042831,0,0.000977,-0.001831,0.000122,-86.669922,31.738281,-102.539062,86,0.000000,0
100,0,1773659042878,0,0.001831,0.000977,-0.000122,135.498047,23.193359,-212.402344,86,0.000000,0
100,0,1773659042878,0,0.000610,0.000000,-0.000366,81.787109,-42.724609,-220.947266,86,0.000000,0
100,0,1773659042879,0,0.000488,0.000000,0.000000,100.097656,-39.062500,-190.429688,86,0.000000,0
100,0,1773659042926,0,0.001343,0.000854,-0.000122,19.531250,0.000000,-158.691406,86,0.000000,0
100,0,1773659042927,0,0.000854,0.000000,-0.000122,-130.615234,23.193359,-123.291016,86,0.000000,0
100,0,1773659042927,0,0.000732,-0.000122,-0.000122,-102.539062,19.531250,-2.874866,86,0.000000,0
100,0,1773659042974,0,0.000977,-0.000122,-0.000122,-39.062500,10.986328,-89.111328,86,0.000000,0
100,0,1773659042976,0,0.000977,0.000000,-0.000122,9.765625,4.882812,-2.427454,86,0.000000,0
100,0,1773659042977,0,0.000977,0.000000,-0.000122,17.089844,0.000000,-2.342233,86,0.000000,0
100,0,1773659043024,0,0.000977,0.000122,-0.000122,-2.441406,1.220703,-2.107875,86,0.000000,0
100,0,1773659043025,0,0.000854,0.000122,-0.000244,-53.710938,9.765625,-50.048828,86,0.000000,0
100,0,1773659043026,0,0.000854,0.000000,-0.000244,-61.035156,12.207031,-46.386719,86,0.000000,0
100,0,1773659043074,0,0.000854,0.000000,-0.000122,-53.710938,13.427734,-1.788296,86,0.000000,0
100,0,1773659043075,0,0.000977,0.000000,0.000000,-20.751953,19.531250,-1.937433,86,0.000000,0
100,0,1773659043076,0,0.000977,0.000000,-0.000122,-9.765625,19.531250,-53.710938,86,0.000000,0
100,0,1773659043121,0,0.000854,0.000000,-0.000244,-28.076172,25.634766,-1.958738,86,0.000000,0
100,0,1773659043121,0,0.000854,0.000000,-0.000244,-30.517578,24.414062,-2.001348,86,0.000000,0
100,0,1773659043122,0,0.000854,0.000000,-0.000122,-29.296875,25.634766,-2.001348,86,0.000000,0
100,0,1773659043169,0,0.000854,0.000000,-0.000122,-28.076172,28.076172,-2.043959,86,0.000000,0
100,0,1773659043171,0,0.000977,0.000000,-0.000122,-21.972656,29.296875,-2.086570,86,0.000000,0
100,0,1773659043172,0,0.000977,0.000122,-0.000122,-20.751953,28.076172,-2.107875,86,0.000000,0
100,0,1773659043219,0,0.000977,0.000122,0.000000,-21.972656,25.634766,-2.150486,86,0.000000,0
100,0,1773659043220,0,0.000977,0.000000,0.000000,-18.310547,26.855469,-2.235707,86,0.000000,0
100,0,1773659043221,0,0.000977,0.000000,0.000000,-9.765625,28.076172,-2.299623,86,0.000000,0
100,0,1773659043267,0,0.000977,0.000000,-0.000122,0.000000,29.296875,-2.427454,86,0.000000,0
100,0,1773659043268,0,0.000977,0.000122,-0.000122,3.662109,29.296875,-86.669922,86,0.000000,0
100,0,1773659043269,0,0.001099,0.000122,-0.000122,-1.220703,30.517578,-2.533981,86,0.000000,0
100,0,1773659043315,0,0.001221,0.000122,-0.000122,-21.972656,34.179688,-2.619202,86,0.000000,0
100,0,1773659043317,0,0.001221,0.000000,0.000000,-28.076172,37.841797,-2.832255,86,0.000000,0
100,0,1773659043318,0,0.001221,0.000000,0.000000,-28.076172,39.062500,-2.938781,86,0.000000,0
100,0,1773659043365,0,0.001221,0.000000,0.000000,-36.621094,45.166016,-3.237055,86,0.000000,0
100,0,1773659043366,0,0.001221,0.000000,-0.000122,-46.386719,52.490234,-144.042969,86,0.000000,0
100,0,1773659043366,0,0.001343,0.000000,-0.000122,-61.035156,54.931641,-3.684466,86,0.000000,0
100,0,1773659043462,0,0.001465,0.000000,-0.000244,-112.304688,59.814453,-3.918825,86,0.000000,0
100,0,1773659043463,0,0.001587,-0.000366,-0.000366,-167.236328,61.035156,-179.443359,86,0.000000,0
100,0,1773659043464,0,0.001709,-0.000610,-0.000488,-164.794922,61.035156,-184.326172,86,0.000000,0
100,0,1773659043510,0,0.001831,-0.000732,-0.000488,-123.291016,54.931641,-198.974609,86,0.000000,0
100,0,1773659043512,0,0.001709,0.000000,-0.000244,-42.724609,63.476562,-3.748382,86,0.000000,0
100,0,1773659043512,0,0.001221,-0.000122,-0.000488,-52.490234,58.593750,-3.237055,86,0.000000,0
100,0,1773659043608,0,0.000610,-0.000488,0.000122,-130.615234,85.449219,-1.681769,86,0.000000,0
100,0,1773659043609,0,0.000244,0.000000,-0.000122,-46.386719,12.207031,-30.517578,86,0.000000,0
100,0,1773659043610,0,0.000244,0.000000,-0.000366,-54.931641,7.324219,8.544922,86,0.000000,0
100,0,1773659043658,0,0.000122,-0.000366,-0.000244,-104.980469,-65.917969,0.129180,86,0.000000,0
100,0,1773659043659,0,0.000366,-0.000122,-0.000122,6.103516,-117.187500,217.285156,86,0.000000,0
100,0,1773659043660,0,0.000366,-0.000244,-0.000122,19.531250,-129.394531,239.257812,86,0.000000,0
100,0,1773659043706,0,0.000610,-0.000366,0.000000,84.228516,-148.925781,3.708469,86,0.000000,0
100,0,1773659043707,0,0.000854,-0.000122,0.000000,108.642578,-156.250000,4.219796,86,0.000000,0
100,0,1773659043708,0,0.000732,-0.000122,0.000000,118.408203,-163.574219,4.454154,86,0.000000,0
100,0,1773659043755,0,0.000977,-0.000122,0.000000,130.615234,-166.015625,5.008091,86,0.000000,0
100,0,1773659043755,0,0.001221,0.000000,0.000000,134.277344,-153.808594,5.540724,86,0.000000,0
100,0,1773659043756,0,0.001343,0.000000,0.000000,134.277344,-148.925781,5.860303,86,0.000000,0
100,0,1773659043803,0,0.001709,-0.000122,-0.000122,147.705078,-140.380859,6.392935,86,0.000000,0
100,0,1773659043805,0,0.001831,-0.000122,-0.000366,177.001953,-137.939453,6.776431,86,0.000000,0
100,0,1773659043806,0,0.001831,0.000000,-0.000488,179.443359,-134.277344,455.322266,86,0.000000,0
100,0,1773659043853,0,0.001831,0.000366,-0.000366,129.394531,-117.187500,6.882957,86,0.000000,0
100,0,1773659043854,0,0.001831,0.000854,-0.000244,98.876953,-103.759766,6.329020,86,0.000000,0
100,0,1773659043855,0,0.001831,0.001221,-0.000244,48.828125,-87.890625,5.753777,86,0.000000,0
100,0,1773659043998,0,0.001465,0.001831,-0.000122,-78.125000,-92.773438,3.836300,86,0.000000,0
100,0,1773659044001,0,0.001221,0.001831,0.000488,-172.119141,-52.490234,1.790993,86,0.000000,0
100,0,1773659044001,0,0.001099,0.001587,0.000366,-123.291016,-29.296875,0.597897,86,0.000000,0
100,0,1773659044002,0,0.001099,0.001465,0.000122,-95.214844,25.634766,-2.171791,86,0.000000,0
100,0,1773659044047,0,0.001343,0.000854,0.000122,-101.318359,50.048828,-4.749731,86,0.000000,0
100,0,1773659044048,0,0.001831,0.001343,-0.000854,244.140625,-53.710938,-260.009766,86,0.000000,0
100,0,1773659044049,0,0.001465,0.001221,-0.000122,170.898438,-41.503906,-5.474111,86,0.000000,0
100,0,1773659044096,0,0.000366,0.000122,-0.000122,67.138672,-21.972656,-4.217099,86,0.000000,0
100,0,1773659044097,0,0.000977,0.000854,0.000000,3.662109,0.000000,-3.663161,86,0.000000,0
100,0,1773659044098,0,0.001099,0.000732,-0.000244,-84.228516,8.544922,-3.151834,86,0.000000,0
100,0,1773659044146,0,0.000854,0.000000,-0.000244,-123.291016,21.972656,-2.533981,86,0.000000,0
100,0,1773659044147,0,0.000854,0.000000,-0.000244,-83.007812,25.634766,-2.235707,86,0.000000,0
100,0,1773659044147,0,0.000854,-0.000122,-0.000122,-56.152344,17.089844,-62.255859,86,0.000000,0
100,0,1773659044193,0,0.000977,0.000000,-0.000122,-18.310547,10.986328,-1.894822,86,0.000000,0
100,0,1773659044194,0,0.000854,0.000000,0.000000,-1.220703,0.000000,-1.788296,86,0.000000,0
100,0,1773659044195,0,0.000854,0.000000,0.000000,6.103516,-6.103516,-1.745685,86,0.000000,0
100,0,1773659044247,0,0.000977,0.000122,-0.000366,-13.427734,0.000000,-36.621094,86,0.000000,0
100,0,1773659044249,0,0.000854,0.000000,-0.000244,-57.373047,10.986328,-1.511327,86,0.000000,0
100,0,1773659044251,0,0.000854,0.000000,-0.000244,-48.828125,9.765625,-30.517578,86,0.000000,0
100,0,1773659044292,0,0.000854,0.000000,-0.000122,-37.841797,8.544922,-40.283203,86,0.000000,0
100,0,1773659044296,0,0.000854,-0.000122,-0.000122,-12.207031,2.441406,-48.828125,86,0.000000,0
100,0,1773659044296,0,0.000854,0.000000,-0.000122,-2.441406,0.000000,-1.916127,86,0.000000,0
100,0,1773659044339,0,0.000977,0.000000,-0.000244,-21.972656,7.324219,-57.373047,86,0.000000,0
100,0,1773659044346,0,0.000854,0.000000,-0.000244,-25.634766,10.986328,-2.107875,86,0.000000,0
100,0,1773659044346,0,0.000854,0.000000,-0.000122,-21.972656,12.207031,-67.138672,86,0.000000,0
100,0,1773659044388,0,0.000977,0.000000,-0.000122,-10.986328,18.310547,-75.683594,86,0.000000,0
100,0,1773659044389,0,0.000977,0.000000,-0.000122,-2.441406,29.296875,-84.228516,86,0.000000,0
100,0,1773659044389,0,0.000977,0.000000,-0.000122,-2.441406,34.179688,-2.512676,86,0.000000,0
100,0,1773659044439,0,0.000977,0.000000,-0.000122,-3.662109,32.958984,-2.597897,86,0.000000,0
100,0,1773659044439,0,0.000977,0.000000,-0.000122,-4.882812,32.958984,-2.683118,86,0.000000,0
100,0,1773659044444,0,0.000977,0.000000,-0.000122,-1.220703,30.517578,-100.097656,86,0.000000,0
100,0,1773659044486,0,0.000977,0.000244,-0.000122,-8.544922,25.634766,-2.810950,86,0.000000,0
100,0,1773659044487,0,0.001099,0.000122,-0.000122,-17.089844,26.855469,-2.853560,86,0.000000,0
100,0,1773659044489,0,0.001099,0.000000,-0.000122,-8.544922,26.855469,-2.917476,86,0.000000,0
100,0,1773659044535,0,0.001099,0.000122,-0.000122,-2.441406,25.634766,-118.408203,86,0.000000,0
100,0,1773659044536,0,0.001221,0.000122,-0.000122,-24.414062,28.076172,-3.215750,86,0.000000,0
100,0,1773659044537,0,0.001221,0.000122,-0.000122,-25.634766,31.738281,-3.343582,86,0.000000,0
100,0,1773659044632,0,0.001221,0.000122,-0.000244,-41.503906,34.179688,-146.484375,86,0.000000,0
100,0,1773659044633,0,0.001343,0.000122,-0.000366,-80.566406,32.958984,-3.769688,86,0.000000,0
100,0,1773659044635,0,0.001343,0.000122,-0.000244,-101.318359,31.738281,-3.876214,86,0.000000,0
100,0,1773659044682,0,0.001587,0.000000,-0.000244,-142.822266,34.179688,-4.067962,86,0.000000,0
100,0,1773659044682,0,0.001465,-0.000122,-0.000366,-133.056641,9.765625,-4.472762,86,0.000000,0
100,0,1773659044684,0,0.001465,0.000244,-0.000244,-113.525391,13.427734,-4.408846,86,0.000000,0
100,0,1773659044732,0,0.001465,0.000488,-0.000366,-97.656250,12.207031,-173.339844,86,0.000000,0
100,0,1773659044732,0,0.001343,0.000122,-0.000488,-73.242188,0.000000,-141.601562,86,0.000000,0
100,0,1773659044734,0,0.000854,-0.000122,-0.000366,-107.421875,-8.544922,-97.656250,86,0.000000,0
100,0,1773659044782,0,0.000244,0.000122,-0.000366,-152.587891,3.662109,-58.593750,86,0.000000,0
100,0,1773659044783,0,0.000000,0.000000,-0.000122,-163.574219,-69.580078,-1.276969,86,0.000000,0
100,0,1773659044784,0,0.000122,-0.000244,-0.000366,-186.767578,-84.228516,-0.254315,86,0.000000,0
100,0,1773659044829,0,0.000244,-0.000977,0.000000,-180.664062,-92.773438,0.597897,86,0.000000,0
100,0,1773659044830,0,0.000122,-0.000610,0.000000,-72.021484,-124.511719,0.896171,86,0.000000,0
100,0,1773659044830,0,0.000244,-0.000244,0.000000,-43.945312,-145.263672,1.151834,86,0.000000,0
100,0,1773659044877,0,0.000366,-0.000122,0.000000,-29.296875,-174.560547,1.854909,86,0.000000,0
100,0,1773659044878,0,0.000488,-0.000244,0.000000,-8.544922,-198.974609,2.515373,86,0.000000,0
100,0,1773659044880,0,0.000610,-0.000366,0.000000,7.324219,-208.740234,2.813647,86,0.000000,0
100,0,1773659044925,0,0.000854,-0.000366,0.000122,31.738281,-216.064453,3.495416,86,0.000000,0
100,0,1773659044928,0,0.000977,-0.000244,0.000244,37.841797,-218.505859,4.219796,86,0.000000,0
100,0,1773659044930,0,0.001099,-0.000244,0.000244,37.841797,-217.285156,4.518070,86,0.000000,0
100,0,1773659044977,0,0.001221,-0.000122,0.000244,24.414062,-207.519531,368.652344,86,0.000000,0
100,0,1773659044977,0,0.001465,-0.000122,0.000366,12.207031,-183.105469,5.625945,86,0.000000,0
100,0,1773659044979,0,0.001465,-0.000122,0.000244,15.869141,-172.119141,5.838998,86,0.000000,0
100,0,1773659045026,0,0.001709,-0.000122,0.000122,15.869141,-158.691406,6.329020,86,0.000000,0
100,0,1773659045027,0,0.001831,-0.000366,0.000000,23.193359,-147.705078,437.011719,86,0.000000,0
100,0,1773659045028,0,0.001831,-0.000244,0.000000,43.945312,-142.822266,440.673828,86,0.000000,0
100,0,1773659045075,0,0.001831,0.000122,0.000000,92.773438,-126.953125,432.128906,86,0.000000,0
100,0,1773659045122,0,0.001831,0.000732,0.000122,45.166016,-91.552734,6.009440,86,0.000000,0
100,0,1773659045123,0,0.001831,0.000732,0.000122,18.310547,-61.035156,5.476808,86,0.000000,0
100,0,1773659045123,0,0.001587,0.000977,0.000122,13.427734,-28.076172,268.554688,86,0.000000,0
100,0,1773659045125,0,0.000854,0.001831,-0.000122,-26.855469,-28.076172,2.046656,86,0.000000,0
100,0,1773659045171,0,0.000977,0.001465,0.000244,-140.380859,7.324219,-0.019957,86,0.000000,0
100,0,1773659045172,0,0.001099,0.000977,0.000122,-133.056641,64.697266,-115.966797,86,0.000000,0
100,0,1773659045174,0,0.001099,0.000732,0.000000,-118.408203,76.904297,-3.641856,86,0.000000,0
100,0,1773659045219,0,0.001221,0.000366,-0.000244,-70.800781,73.242188,-4.494067,86,0.000000,0
100,0,1773659045221,0,0.000977,-0.001831,-0.001099,-90.332031,41.503906,-129.394531,86,0.000000,0
100,0,1773659045222,0,0.000854,-0.001709,0.000000,-46.386719,19.531250,-3.173139,86,0.000000,0
100,0,1773659045269,0,0.001831,-0.000732,0.000366,112.304688,68.359375,-3.386192,86,0.000000,0
100,0,1773659045272,0,0.001831,0.000610,-0.000244,196.533203,8.544922,-230.712891,86,0.000000,0
100,0,1773659045273,0,0.001831,0.001221,-0.000366,172.119141,2.441406,-247.802734,86,0.000000,0
100,0,1773659045318,0,0.000610,0.000122,0.000000,23.193359,-4.882812,-4.600594,86,0.000000,0
100,0,1773659045319,0,0.000610,0.000488,-0.000122,72.021484,-20.751953,-3.684466,86,0.000000,0
100,0,1773659045320,0,0.001099,0.000732,-0.000122,8.544922,-14.648438,-131.835938,86,0.000000,0
100,0,1773659045364,0,0.000854,0.000122,-0.000366,-89.111328,1.220703,-2.555286,86,0.000000,0
100,0,1773659045365,0,0.000854,0.000000,-0.000244,-74.462891,8.544922,-2.086570,86,0.000000,0
100,0,1773659045366,0,0.000854,0.000000,-0.000244,-72.021484,7.324219,-1.958738,86,0.000000,0
100,0,1773659045414,0,0.000854,0.000000,-0.000244,-61.035156,10.986328,-1.703074,86,0.000000,0
100,0,1773659045415,0,0.000854,0.000000,-0.000122,-34.179688,3.662109,-1.553937,86,0.000000,0
100,0,1773659045417,0,0.000854,0.000000,-0.000122,-15.869141,-2.441406,-29.296875,86,0.000000,0
100,0,1773659045513,0,0.000854,0.000000,-0.000244,-2.441406,-7.324219,-26.855469,86,0.000000,0
100,0,1773659045515,0,0.000854,0.000000,-0.000366,-35.400391,2.441406,-1.383495,86,0.000000,0
100,0,1773659045515,0,0.000854,0.000000,-0.000366,-41.503906,3.662109,-1.362190,86,0.000000,0
100,0,1773659045515,0,0.000854,0.000000,-0.000244,-41.503906,1.220703,-1.426106,86,0.000000,0
100,0,1773659045560,0,0.000854,0.000000,-0.000244,-30.517578,-1.220703,-1.617853,86,0.000000,0
100,0,1773659045563,0,0.000854,0.000000,-0.000244,-47.607422,3.662109,-46.386719,86,0.000000,0
100,0,1773659045563,0,0.000854,0.000000,-0.000244,-46.386719,3.662109,-1.873517,86,0.000000,0
100,0,1773659045609,0,0.000854,0.000000,-0.000244,-36.621094,3.662109,-2.001348,86,0.000000,0
100,0,1773659045610,0,0.000854,0.000000,-0.000244,-21.972656,1.220703,-2.107875,86,0.000000,0
100,0,1773659045613,0,0.000977,0.000000,-0.000244,-20.751953,1.220703,-2.129180,86,0.000000,0
100,0,1773659045658,0,0.000977,0.000122,-0.000244,-25.634766,3.662109,-2.107875,86,0.000000,0
100,0,1773659045658,0,0.000854,0.000122,-0.000244,-37.841797,4.882812,-2.065264,86,0.000000,0
100,0,1773659045659,0,0.000977,0.000122,-0.000244,-45.166016,9.765625,-2.043959,86,0.000000,0
100,0,1773659045708,0,0.000977,0.000000,-0.000122,-46.386719,20.751953,-64.697266,86,0.000000,0
100,0,1773659045709,0,0.000854,0.000000,-0.000244,-30.517578,24.414062,-74.462891,86,0.000000,0
100,0,1773659045712,0,0.000977,0.000000,-0.000244,-26.855469,25.634766,-79.345703,86,0.000000,0
100,0,1773659045807,0,0.000977,0.000000,-0.000366,-28.076172,25.634766,-2.512676,86,0.000000,0
100,0,1773659045810,0,0.000977,0.000122,-0.000244,-34.179688,20.751953,-2.640507,86,0.000000,0
100,0,1773659045813,0,0.001099,0.000122,-0.000244,-64.697266,19.531250,-98.876953,86,0.000000,0
100,0,1773659045813,0,0.001099,0.000122,-0.000244,-51.269531,17.089844,-2.960087,86,0.000000,0
100,0,1773659045853,0,0.001099,0.000122,-0.000244,-76.904297,14.648438,-3.237055,86,0.000000,0
100,0,1773659045854,0,0.001343,0.000122,-0.000244,-166.015625,8.544922,-3.684466,86,0.000000,0
100,0,1773659045855,0,0.001465,0.000000,-0.000244,-186.767578,4.882812,-3.790993,86,0.000000,0
100,0,1773659045902,0,0.001709,0.000122,-0.000366,-253.906250,-2.441406,-162.353516,86,0.000000,0
100,0,1773659045903,0,0.001831,-0.000366,-0.000488,-343.017578,-2.441406,-159.912109,86,0.000000,0
100,0,1773659045904,0,0.001709,-0.000854,-0.000610,-333.251953,-4.882812,-164.794922,86,0.000000,0
100,0,1773659045949,0,0.001343,-0.000366,-0.000366,-169.677734,-12.207031,-4.259709,86,0.000000,0
100,0,1773659045953,0,0.001587,0.000732,-0.000244,-113.525391,3.662109,-4.557983,86,0.000000,0
100,0,1773659045955,0,0.001587,0.000854,-0.000122,-113.525391,2.441406,-4.408846,86,0.000000,0
100,0,1773659046000,0,0.001221,0.000488,-0.000488,-144.042969,-13.427734,-3.641856,86,0.000000,0
100,0,1773659046001,0,0.000610,-0.000122,-0.000366,-223.388672,-34.179688,-2.448760,86,0.000000,0
100,0,1773659046002,0,0.000122,0.000000,-0.000488,-217.285156,-83.007812,-2.299623,86,0.000000,0
100,0,1773659046048,0,0.000122,-0.000366,-0.000244,-245.361328,-95.214844,-0.936084,86,0.000000,0
100,0,1773659046048,0,0.000122,-0.000610,-0.000122,-263.671875,-128.173828,-0.275620,86,0.000000,0
100,0,1773659046051,0,0.000122,-0.000732,0.000000,-249.023438,-139.160156,62.255859,86,0.000000,0
100,0,1773659046096,0,0.000244,-0.000488,0.000000,-180.664062,-157.470703,0.640507,86,0.000000,0
100,0,1773659046097,0,0.000366,-0.000366,0.000122,-144.042969,-184.326172,131.835938,86,0.000000,0
100,0,1773659046098,0,0.000488,-0.000366,0.000122,-126.953125,-194.091797,1.535329,86,0.000000,0
100,0,1773659046147,0,0.000732,-0.000488,0.000244,-67.138672,-202.636719,179.443359,86,0.000000,0
100,0,1773659046148,0,0.000854,-0.000488,0.000244,-18.310547,-207.519531,2.600594,86,0.000000,0
100,0,1773659046149,0,0.000854,-0.000366,0.000244,8.544922,-211.181641,2.877563,86,0.000000,0
100,0,1773659046193,0,0.000977,-0.000244,0.000244,25.634766,-214.843750,3.452806,86,0.000000,0
100,0,1773659046196,0,0.001099,-0.000122,0.000244,13.427734,-206.298828,295.410156,86,0.000000,0
100,0,1773659046197,0,0.001099,-0.000122,0.000244,2.441406,-200.195312,4.432848,86,0.000000,0
100,0,1773659046242,0,0.001221,-0.000122,0.000244,-12.207031,-187.988281,345.458984,86,0.000000,0
100,0,1773659046243,0,0.001465,-0.000122,0.000244,-28.076172,-173.339844,366.210938,86,0.000000,0
100,0,1773659046244,0,0.001587,-0.000122,0.000244,-31.738281,-167.236328,5.583334,86,0.000000,0
100,0,1773659046292,0,0.001709,-0.000122,0.000244,-13.427734,-147.705078,391.845703,86,0.000000,0
100,0,1773659046292,0,0.001831,0.000122,0.000122,1.220703,-130.615234,5.817692,86,0.000000,0
100,0,1773659046293,0,0.001831,0.000000,0.000000,-2.441406,-122.070312,5.817692,86,0.000000,0
100,0,1773659046339,0,0.001831,0.000122,0.000000,13.427734,-96.435547,368.652344,86,0.000000,0
100,0,1773659046342,0,0.001831,0.000732,0.000000,-26.855469,-74.462891,4.560680,86,0.000000,0
100,0,1773659046343,0,0.001709,0.000610,0.000122,-42.724609,-59.814453,286.865234,86,0.000000,0
100,0,1773659046439,0,0.001343,0.000854,0.000000,-39.062500,-37.841797,2.771036,86,0.000000,0
100,0,1773659046442,0,0.000977,0.001343,0.000000,-86.669922,-30.517578,1.322276,86,0.000000,0
100,0,1773659046442,0,0.001099,0.001099,0.000000,-125.732422,-13.427734,0.661813,86,0.000000,0
100,0,1773659046443,0,0.000977,0.000854,0.000000,-136.718750,17.089844,-0.786947,86,0.000000,0
100,0,1773659046486,0,0.000977,0.000488,0.000000,-135.498047,51.269531,-2.832255,86,0.000000,0
100,0,1773659046487,0,0.001099,-0.000244,-0.000122,-53.710938,36.621094,-3.854909,86,0.000000,0
100,0,1773659046489,0,0.001221,-0.001099,0.000000,-24.414062,65.917969,-166.015625,86,0.000000,0
100,0,1773659046537,0,0.000854,-0.001709,0.000000,153.808594,25.634766,-2.066613,86,0.000000,0
100,0,1773659046538,0,0.001831,-0.000977,0.000000,313.720703,10.986328,-117.187500,86,0.000000,0
100,0,1773659046539,0,0.001831,0.000610,0.000000,341.796875,-1.220703,-4.344931,86,0.000000,0
100,0,1773659046583,0,0.001709,0.001709,-0.000122,102.539062,9.765625,-191.650391,86,0.000000,0
100,0,1773659046585,0,0.000244,-0.000366,-0.000244,-37.841797,23.193359,-3.514024,86,0.000000,0
100,0,1773659046587,0,0.000000,0.000000,-0.000488,54.931641,-15.869141,-3.279666,86,0.000000,0
100,0,1773659046633,0,0.001221,0.000732,-0.000122,-42.724609,12.207031,-96.435547,86,0.000000,0
100,0,1773659046635,0,0.000854,0.000000,-0.000366,-102.539062,19.531250,-74.462891,86,0.000000,0
100,0,1773659046637,0,0.000732,0.000000,-0.000366,-75.683594,17.089844,-2.171791,86,0.000000,0
100,0,1773659046683,0,0.000977,0.000000,-0.000244,-68.359375,17.089844,-1.894822,86,0.000000,0
100,0,1773659046684,0,0.000854,0.000000,-0.000244,-52.490234,13.427734,-41.503906,86,0.000000,0
100,0,1773659046686,0,0.000854,0.000000,-0.000122,-34.179688,9.765625,-40.283203,86,0.000000,0
100,0,1773659046732,0,0.000854,0.000000,-0.000244,-14.648438,0.000000,-39.062500,86,0.000000,0
100,0,1773659046733,0,0.000854,0.000000,-0.000244,-32.958984,2.441406,-1.639159,86,0.000000,0
100,0,1773659046734,0,0.000854,0.000000,-0.000366,-40.283203,7.324219,-1.596548,86,0.000000,0
100,0,1773659046782,0,0.000854,0.000000,-0.000244,-43.945312,12.207031,-32.958984,86,0.000000,0
100,0,1773659046783,0,0.000854,0.000000,-0.000244,-43.945312,12.207031,-1.639159,86,0.000000,0
100,0,1773659046783,0,0.000854,0.000000,-0.000244,-37.841797,10.986328,-1.660464,86,0.000000,0
100,0,1773659046829,0,0.000854,0.000000,-0.000244,-20.751953,7.324219,-1.766990,86,0.000000,0
100,0,1773659046830,0,0.000854,0.000000,-0.000244,-23.193359,13.427734,-46.386719,86,0.000000,0
100,0,1773659046832,0,0.000854,0.000000,-0.000244,-28.076172,17.089844,-1.830906,86,0.000000,0
100,0,1773659046877,0,0.000854,0.000000,-0.000244,-24.414062,21.972656,-53.710938,86,0.000000,0
100,0,1773659046878,0,0.000854,0.000000,-0.000122,-24.414062,21.972656,-57.373047,86,0.000000,0
100,0,1773659046879,0,0.000854,0.000000,-0.000122,-20.751953,23.193359,-2.022654,86,0.000000,0
100,0,1773659046929,0,0.000854,0.000000,-0.000244,-12.207031,25.634766,-2.086570,86,0.000000,0
100,0,1773659046931,0,0.000854,0.000122,-0.000244,-10.986328,25.634766,-2.129180,86,0.000000,0
100,0,1773659046932,0,0.000977,0.000122,-0.000244,-12.207031,25.634766,-65.917969,86,0.000000,0
100,0,1773659046975,0,0.000977,0.000000,-0.000244,-14.648438,23.193359,-65.917969,86,0.000000,0
100,0,1773659046975,0,0.000977,0.000122,-0.000244,-17.089844,23.193359,-69.580078,86,0.000000,0
100,0,1773659046977,0,0.000977,0.000122,-0.000122,-20.751953,21.972656,-2.278317,86,0.000000,0
100,0,1773659047022,0,0.000977,0.000122,-0.000244,-21.972656,20.751953,-2.384844,86,0.000000,0
100,0,1773659047023,0,0.000977,0.000122,-0.000244,-30.517578,19.531250,-2.491370,86,0.000000,0
100,0,1773659047024,0,0.001099,0.000122,-0.000122,-31.738281,19.531250,-2.555286,86,0.000000,0
100,0,1773659047073,0,0.001099,0.000122,-0.000244,-34.179688,18.310547,-98.876953,86,0.000000,0
100,0,1773659047076,0,0.001099,0.000122,-0.000244,-51.269531,17.089844,-2.938781,86,0.000000,0
100,0,1773659047077,0,0.001099,0.000122,-0.000244,-57.373047,18.310547,-3.066613,86,0.000000,0
100,0,1773659047119,0,0.001221,0.000122,-0.000244,-76.904297,19.531250,-3.364887,86,0.000000,0
100,0,1773659047122,0,0.001221,0.000122,-0.000244,-104.980469,18.310547,-155.029297,86,0.000000,0
100,0,1773659047122,0,0.001343,0.000000,-0.000244,-108.642578,18.310547,-3.854909,86,0.000000,0
100,0,1773659047169,0,0.001587,0.000000,-0.000366,-130.615234,14.648438,-179.443359,86,0.000000,0
100,0,1773659047170,0,0.001709,0.000000,-0.000366,-173.339844,6.103516,-183.105469,86,0.000000,0
100,0,1773659047172,0,0.001709,0.000000,-0.000488,-206.298828,2.441406,-178.222656,86,0.000000,0
100,0,1773659047219,0,0.001831,-0.000122,-0.000610,-301.513672,-4.882812,-3.748382,86,0.000000,0
100,0,1773659047220,0,0.001099,-0.000122,-0.000366,-290.527344,-14.648438,-3.790993,86,0.000000,0
100,0,1773659047222,0,0.001099,0.000244,-0.000366,-235.595703,-19.531250,-4.089267,86,0.000000,0
100,0,1773659047267,0,0.001343,0.000610,-0.000366,-172.119141,-25.634766,-4.046657,86,0.000000,0
100,0,1773659047268,0,0.001099,0.000488,-0.000244,-247.802734,-52.490234,-137.939453,86,0.000000,0
100,0,1773659047270,0,0.000854,0.000000,-0.000610,-277.099609,-62.255859,-3.087918,86,0.000000,0
100,0,1773659047317,0,0.000122,-0.000488,-0.000488,-327.148438,-118.408203,-1.958738,86,0.000000,0
100,0,1773659047318,0,0.000366,-0.000854,-0.000122,-295.410156,-117.187500,-0.978695,86,0.000000,0
100,0,1773659047319,0,0.000488,-0.000854,0.000000,-268.554688,-112.304688,-0.659115,86,0.000000,0
100,0,1773659047363,0,0.000366,-0.000732,0.000244,-153.808594,-136.718750,45.166016,86,0.000000,0
100,0,1773659047363,0,0.000488,-0.000366,0.000244,-84.228516,-162.353516,0.342233,86,0.000000,0
100,0,1773659047365,0,0.000488,-0.000366,0.000122,-54.931641,-172.119141,92.773438,86,0.000000,0
100,0,1773659047413,0,0.000610,-0.000366,0.000122,14.648438,-184.326172,125.732422,86,0.000000,0
100,0,1773659047414,0,0.000610,-0.000244,0.000122,46.386719,-192.871094,1.705772,86,0.000000,0
100,0,1773659047415,0,0.000732,-0.000244,0.000122,56.152344,-195.312500,2.046656,86,0.000000,0
100,0,1773659047462,0,0.000854,-0.000122,0.000122,58.593750,-197.753906,2.813647,86,0.000000,0
100,0,1773659047463,0,0.000977,-0.000122,0.000122,40.283203,-194.091797,3.452806,86,0.000000,0
100,0,1773659047463,0,0.000977,-0.000122,0.000122,31.738281,-190.429688,3.687163,86,0.000000,0
100,0,1773659047560,0,0.001099,-0.000122,0.000244,15.869141,-179.443359,302.734375,86,0.000000,0
100,0,1773659047563,0,0.001099,-0.000122,0.000244,2.441406,-172.119141,4.667207,86,0.000000,0
100,0,1773659047564,0,0.001221,-0.000122,0.000244,0.000000,-167.236328,4.880260,86,0.000000,0
100,0,1773659047564,0,0.001343,-0.000122,0.000122,-1.220703,-153.808594,5.242450,86,0.000000,0
100,0,1773659047608,0,0.001587,-0.000244,0.000000,13.427734,-145.263672,5.647250,86,0.000000,0
100,0,1773659047610,0,0.001831,0.000000,0.000000,76.904297,-126.953125,5.455503,86,0.000000,0
100,0,1773659047612,0,0.001831,0.000000,0.000000,85.449219,-115.966797,357.666016,86,0.000000,0
100,0,1773659047657,0,0.001831,0.000488,0.000000,42.724609,-72.021484,4.624596,86,0.000000,0
100,0,1773659047658,0,0.001465,0.000488,-0.000122,39.062500,-48.828125,3.303668,86,0.000000,0
100,0,1773659047658,0,0.000977,0.001099,-0.000244,40.283203,-63.476562,207.519531,86,0.000000,0
100,0,1773659047705,0,0.001099,0.001465,0.000244,-81.787109,-37.841797,108.642578,86,0.000000,0
100,0,1773659047705,0,0.000977,0.001099,0.000244,-39.062500,-8.544922,-1.127832,86,0.000000,0
100,0,1773659047707,0,0.001099,0.001099,0.000122,-29.296875,12.207031,-2.129180,86,0.000000,0
100,0,1773659047753,0,0.001221,0.000854,0.000244,-10.986328,50.048828,-3.769688,86,0.000000,0
100,0,1773659047755,0,0.001221,0.000610,0.000122,32.958984,63.476562,-219.726562,86,0.000000,0
100,0,1773659047757,0,0.001221,0.000366,-0.000244,50.048828,56.152344,-229.492188,86,0.000000,0
100,0,1773659047802,0,0.000732,-0.001831,-0.000977,30.517578,21.972656,-3.087918,86,0.000000,0
100,0,1773659047803,0,0.001343,-0.000244,0.000366,234.375000,42.724609,-3.535329,86,0.000000,0
100,0,1773659047804,0,0.001831,0.000000,0.000122,185.546875,41.503906,-139.160156,86,0.000000,0
100,0,1773659047851,0,0.001831,0.001099,-0.000122,90.332031,-3.662109,-4.366236,86,0.000000,0
100,0,1773659047853,0,0.001221,0.000610,-0.000244,-21.972656,0.000000,-194.091797,86,0.000000,0
100,0,1773659047854,0,0.000854,-0.000122,-0.000122,-21.972656,-9.765625,-4.046657,86,0.000000,0
100,0,1773659047903,0,0.000488,0.000244,-0.000366,41.503906,-18.310547,-3.386192,86,0.000000,0
100,0,1773659047903,0,0.001099,0.000366,-0.000244,-65.917969,15.869141,-2.747034,86,0.000000,0
100,0,1773659047903,0,0.001099,0.000244,-0.000244,-102.539062,20.751953,-2.555286,86,0.000000,0
100,0,1773659047951,0,0.000854,0.000000,-0.000244,-114.746094,24.414062,-2.278317,86,0.000000,0
100,0,1773659047952,0,0.000854,-0.000244,-0.000244,-63.476562,9.765625,-2.107875,86,0.000000,0
100,0,1773659047953,0,0.000854,-0.000122,-0.000122,-17.089844,6.103516,-2.065264,86,0.000000,0
100,0,1773659047997,0,0.000854,0.000000,-0.000122,8.544922,0.000000,-1.980043,86,0.000000,0
100,0,1773659047998,0,0.000977,0.000122,-0.000244,-14.648438,3.662109,-48.828125,86,0.000000,0
100,0,1773659047999,0,0.000977,0.000122,-0.000366,-42.724609,10.986328,-1.745685,86,0.000000,0
100,0,1773659048048,0,0.000854,0.000000,-0.000244,-62.255859,13.427734,-35.400391,86,0.000000,0
100,0,1773659048048,0,0.000854,0.000000,-0.000244,-50.048828,13.427734,-1.639159,86,0.000000,0
100,0,1773659048049,0,0.000854,0.000000,-0.000122,-43.945312,10.986328,-1.660464,86,0.000000,0
100,0,1773659048098,0,0.000977,0.000000,-0.000244,-24.414062,7.324219,-42.724609,86,0.000000,0
100,0,1773659048098,0,0.000854,0.000000,-0.000244,-43.945312,12.207031,-42.724609,86,0.000000,0
100,0,1773659048099,0,0.000854,0.000000,-0.000244,-52.490234,14.648438,-42.724609,86,0.000000,0
100,0,1773659048143,0,0.000854,0.000000,-0.000244,-53.710938,19.531250,-1.809601,86,0.000000,0
100,0,1773659048145,0,0.000854,0.000000,-0.000122,-46.386719,29.296875,-1.958738,86,0.000000,0
100,0,1773659048146,0,0.000854,0.000000,-0.000244,-42.724609,29.296875,-2.022654,86,0.000000,0
100,0,1773659048242,0,0.000854,0.000000,-0.000122,-35.400391,34.179688,-2.107875,86,0.000000,0
100,0,1773659048242,0,0.000854,0.000000,-0.000122,-24.414062,37.841797,-67.138672,86,0.000000,0
100,0,1773659048244,0,0.000854,0.000000,-0.000122,-19.531250,37.841797,-2.214401,86,0.000000,0
100,0,1773659048244,0,0.000854,0.000122,-0.000122,-4.882812,32.958984,-2.257012,86,0.000000,0
100,0,1773659048293,0,0.000977,0.000122,-0.000122,-12.207031,30.517578,-2.363539,86,0.000000,0
100,0,1773659048294,0,0.001099,0.000122,-0.000122,0.000000,29.296875,-97.656250,86,0.000000,0
100,0,1773659048295,0,0.001099,0.000122,-0.000122,-7.324219,30.517578,-102.539062,86,0.000000,0
100,0,1773659048339,0,0.001221,0.000122,-0.000122,-19.531250,32.958984,-2.938781,86,0.000000,0
100,0,1773659048342,0,0.001221,0.000122,-0.000244,-30.517578,34.179688,-123.291016,86,0.000000,0
100,0,1773659048343,0,0.001221,0.000122,-0.000122,-42.724609,35.400391,-3.258361,86,0.000000,0
100,0,1773659048388,0,0.001343,0.000000,-0.000122,-59.814453,39.062500,-3.535329,86,0.000000,0
100,0,1773659048389,0,0.001343,0.000000,0.000000,-83.007812,41.503906,-3.769688,86,0.000000,0
100,0,1773659048389,0,0.001343,0.000000,-0.000122,-102.539062,43.945312,-164.794922,86,0.000000,0
100,0,1773659048434,0,0.001465,-0.000122,-0.000122,-144.042969,45.166016,-4.089267,86,0.000000,0
100,0,1773659048437,0,0.001709,-0.000488,-0.000488,-167.236328,42.724609,-4.281014,86,0.000000,0
100,0,1773659048438,0,0.001709,-0.000488,-0.000488,-167.236328,39.062500,-4.281014,86,0.000000,0
100,0,1773659048483,0,0.001587,-0.000488,-0.000610,-136.718750,34.179688,-4.323625,86,0.000000,0
100,0,1773659048486,0,0.001465,0.000244,-0.000366,-51.269531,37.841797,-4.536678,86,0.000000,0
100,0,1773659048487,0,0.001587,0.000610,-0.000122,-52.490234,52.490234,-186.767578,86,0.000000,0
100,0,1773659048533,0,0.001465,0.000122,-0.000366,-93.994141,52.490234,-3.812298,86,0.000000,0
100,0,1773659048535,0,0.001221,-0.000122,-0.000366,-96.435547,53.710938,-3.386192,86,0.000000,0
100,0,1773659048536,0,0.000732,-0.000488,-0.000366,-103.759766,30.517578,-2.683118,86,0.000000,0
100,0,1773659048583,0,0.000488,-0.000122,0.000122,-87.890625,80.566406,-1.660464,86,0.000000,0
100,0,1773659048584,0,0.000244,0.000122,-0.000122,-41.503906,-4.882812,-21.972656,86,0.000000,0
100,0,1773659048585,0,0.000244,0.000000,-0.000366,-69.580078,-15.869141,15.869141,86,0.000000,0
100,0,1773659048632,0,0.000122,-0.000488,-0.000122,-125.732422,-70.800781,83.007812,86,0.000000,0
100,0,1773659048633,0,0.000366,-0.000732,0.000000,-68.359375,-59.814453,1.130529,86,0.000000,0
100,0,1773659048634,0,0.000488,-0.000488,0.000000,-19.531250,-61.035156,141.601562,86,0.000000,0
100,0,1773659048680,0,0.000488,0.000000,0.000000,17.089844,-81.787109,2.110572,86,0.000000,0
100,0,1773659048682,0,0.000488,0.000000,-0.000122,9.765625,-106.201172,2.643204,86,0.000000,0
100,0,1773659048683,0,0.000488,0.000000,-0.000122,15.869141,-122.070312,2.962784,86,0.000000,0
100,0,1773659048732,0,0.000610,-0.000244,0.000000,56.152344,-136.718750,3.623248,86,0.000000,0
100,0,1773659048734,0,0.000854,-0.000122,0.000000,92.773438,-140.380859,4.177185,86,0.000000,0
100,0,1773659048735,0,0.000854,0.000000,0.000000,104.980469,-139.160156,4.283711,86,0.000000,0
100,0,1773659048777,0,0.000977,0.000000,0.000000,92.773438,-137.939453,4.880260,86,0.000000,0
100,0,1773659048778,0,0.001099,-0.000122,0.000000,101.318359,-135.498047,5.221144,86,0.000000,0
100,0,1773659048779,0,0.001221,0.000000,0.000000,107.421875,-135.498047,367.431641,86,0.000000,0
100,0,1773659048827,0,0.001465,0.000000,0.000000,103.759766,-124.511719,5.860303,86,0.000000,0
100,0,1773659048829,0,0.001709,-0.000122,0.000000,119.628906,-115.966797,412.597656,86,0.000000,0
100,0,1773659048830,0,0.001831,-0.000122,-0.000122,133.056641,-111.083984,6.329020,86,0.000000,0
100,0,1773659048877,0,0.001831,0.000000,-0.000244,156.250000,-97.656250,6.414240,86,0.000000,0
100,0,1773659048877,0,0.001831,0.000244,-0.000244,168.457031,-79.345703,5.988135,86,0.000000,0
100,0,1773659048878,0,0.001831,0.000488,-0.000366,172.119141,-75.683594,372.314453,86,0.000000,0
100,0,1773659048923,0,0.001709,0.001465,-0.000366,79.345703,-78.125000,4.155880,86,0.000000,0
100,0,1773659048924,0,0.001343,0.001831,0.000000,-69.580078,-54.931641,219.726562,86,0.000000,0
100,0,1773659048927,0,0.001221,0.001709,0.000244,-98.876953,-41.503906,167.236328,86,0.000000,0
100,0,1773659048974,0,0.001099,0.001709,0.000000,-79.345703,2.441406,36.621094,86,0.000000,0
100,0,1773659048975,0,0.001099,0.001221,0.000000,-51.269531,32.958984,-97.656250,86,0.000000,0
100,0,1773659048977,0,0.001099,0.001221,0.000000,-37.841797,39.062500,-3.663161,86,0.000000,0
100,0,1773659049022,0,0.001343,0.000977,0.000000,-26.855469,45.166016,-234.375000,86,0.000000,0
100,0,1773659049024,0,0.001465,-0.001831,0.000000,-84.228516,79.345703,-187.988281,86,0.000000,0
100,0,1773659049025,0,0.000977,-0.001831,0.000000,-23.193359,53.710938,-141.601562,86,0.000000,0
100,0,1773659049070,0,0.001587,-0.000244,0.000488,184.326172,59.814453,-4.430151,86,0.000000,0
100,0,1773659049070,0,0.001831,0.000854,-0.000244,122.070312,14.648438,-5.048005,86,0.000000,0
100,0,1773659049071,0,0.001831,0.000732,-0.000244,69.580078,-8.544922,-5.282363,86,0.000000,0
100,0,1773659049118,0,0.000854,0.000366,-0.000366,122.070312,-51.269531,-257.568359,86,0.000000,0
100,0,1773659049119,0,0.000366,0.000000,-0.000244,102.539062,-39.062500,-4.323625,86,0.000000,0
100,0,1773659049122,0,0.000732,0.000732,-0.000244,79.345703,-20.751953,-4.110572,86,0.000000,0
100,0,1773659049167,0,0.001221,0.000488,-0.000122,-83.007812,14.648438,-3.343582,86,0.000000,0
100,0,1773659049168,0,0.000854,-0.000122,-0.000122,-85.449219,24.414062,-2.789644,86,0.000000,0
100,0,1773659049171,0,0.000854,-0.000122,0.000000,-53.710938,18.310547,-2.597897,86,0.000000,0
100,0,1773659049216,0,0.000977,0.000000,0.000000,-6.103516,8.544922,-2.427454,86,0.000000,0
100,0,1773659049217,0,0.000854,0.000000,0.000000,14.648438,2.441406,-2.320928,86,0.000000,0
100,0,1773659049219,0,0.000977,0.000000,0.000000,24.414062,-2.441406,-2.235707,86,0.000000,0
100,0,1773659049264,0,0.000977,0.000122,-0.000122,14.648438,0.000000,-2.065264,86,0.000000,0
100,0,1773659049266,0,0.000854,0.000244,-0.000244,-47.607422,10.986328,-1.745685,86,0.000000,0
100,0,1773659049267,0,0.000854,0.000000,-0.000244,-64.697266,14.648438,-1.660464,86,0.000000,0
100,0,1773659049318,0,0.000854,0.000000,-0.000122,-48.828125,13.427734,-39.062500,86,0.000000,0
100,0,1773659049319,0,0.000977,0.000000,0.000000,-2.441406,13.427734,-1.809601,86,0.000000,0
100,0,1773659049322,0,0.000977,0.000000,0.000000,4.882812,18.310547,-1.830906,86,0.000000,0
100,0,1773659049363,0,0.000977,0.000122,-0.000244,-24.414062,23.193359,-1.788296,86,0.000000,0
100,0,1773659049365,0,0.000854,0.000000,-0.000122,-40.283203,23.193359,-1.788296,86,0.000000,0
100,0,1773659049367,0,0.000854,0.000000,-0.000122,-37.841797,24.414062,-46.386719,86,0.000000,0
100,0,1773659049410,0,0.000977,0.000000,-0.000122,-28.076172,26.855469,-52.490234,86,0.000000,0
100,0,1773659049410,0,0.000977,0.000000,-0.000122,-21.972656,26.855469,-1.980043,86,0.000000,0
100,0,1773659049412,0,0.000977,0.000000,-0.000122,-23.193359,25.634766,-2.022654,86,0.000000,0
100,0,1773659049461,0,0.000977,0.000000,-0.000122,-21.972656,26.855469,-62.255859,86,0.000000,0
100,0,1773659049462,0,0.000977,0.000122,-0.000122,-25.634766,25.634766,-2.150486,86,0.000000,0
100,0,1773659049464,0,0.000977,0.000000,0.000000,-25.634766,25.634766,-67.138672,86,0.000000,0
100,0,1773659049507,0,0.000977,0.000000,0.000000,-21.972656,25.634766,-74.462891,86,0.000000,0
100,0,1773659049508,0,0.001099,0.000000,0.000000,-17.089844,28.076172,-87.890625,86,0.000000,0
100,0,1773659049509,0,0.001099,0.000000,0.000000,-15.869141,30.517578,-95.214844,86,0.000000,0
100,0,1773659049558,0,0.001221,0.000000,0.000000,-12.207031,34.179688,-2.938781,86,0.000000,0
100,0,1773659049559,0,0.001221,0.000000,0.000000,-13.427734,39.062500,-3.173139,86,0.000000,0
100,0,1773659049560,0,0.001221,0.000000,0.000000,-18.310547,41.503906,-3.300971,86,0.000000,0
100,0,1773659049605,0,0.001343,0.000000,0.000000,-34.179688,48.828125,-3.577940,86,0.000000,0
100,0,1773659049610,0,0.001343,0.000000,-0.000122,-45.166016,57.373047,-3.876214,86,0.000000,0
100,0,1773659049610,0,0.001343,0.000000,-0.000122,-56.152344,58.593750,-3.982740,86,0.000000,0
100,0,1773659049658,0,0.001465,-0.000122,-0.000122,-104.980469,64.697266,-4.153183,86,0.000000,0
100,0,1773659049659,0,0.001709,-0.000488,-0.000366,-122.070312,64.697266,-194.091797,86,0.000000,0
100,0,1773659049660,0,0.001709,-0.000732,-0.000488,-114.746094,62.255859,-201.416016,86,0.000000,0
100,0,1773659049707,0,0.001709,-0.000488,-0.000610,-76.904297,53.710938,-211.181641,86,0.000000,0
100,0,1773659049707,0,0.001587,0.000000,-0.000488,-41.503906,43.945312,-216.064453,86,0.000000,0
100,0,1773659049708,0,0.001709,0.000610,-0.000366,-19.531250,48.828125,-216.064453,86,0.000000,0
100,0,1773659049753,0,0.001587,0.000244,-0.000366,-70.800781,48.828125,-4.302320,86,0.000000,0
100,0,1773659049754,0,0.001587,0.000000,-0.000244,-81.787109,54.931641,-3.727077,86,0.000000,0
100,0,1773659049755,0,0.001099,-0.000366,-0.000610,-92.773438,40.283203,-3.173139,86,0.000000,0
100,0,1773659049801,0,0.000610,-0.000244,0.000000,-129.394531,78.125000,-1.852211,86,0.000000,0
100,0,1773659049803,0,0.000366,0.000122,-0.000122,-69.580078,-14.648438,-1.575243,86,0.000000,0
100,0,1773659049804,0,0.000244,0.000000,-0.000488,-86.669922,-24.414062,-0.978695,86,0.000000,0
100,0,1773659049849,0,0.000122,-0.000610,-0.000244,-130.615234,-81.787109,68.359375,86,0.000000,0
100,0,1773659049850,0,0.000366,-0.000610,0.000000,-53.710938,-54.931641,0.938781,86,0.000000,0
100,0,1773659049852,0,0.000366,-0.000244,0.000000,-1.220703,-69.580078,128.173828,86,0.000000,0
100,0,1773659049898,0,0.000366,0.000000,-0.000122,1.220703,-107.421875,2.004046,86,0.000000,0
100,0,1773659049899,0,0.000366,-0.000244,-0.000122,0.000000,-134.277344,2.834952,86,0.000000,0
100,0,1773659049900,0,0.000488,-0.000366,-0.000122,41.503906,-150.146484,3.197142,86,0.000000,0
100,0,1773659049947,0,0.000732,-0.000366,0.000000,80.566406,-163.574219,3.793690,86,0.000000,0
100,0,1773659049948,0,0.000854,-0.000122,0.000000,90.332031,-170.898438,306.396484,86,0.000000,0
100,0,1773659049949,0,0.000854,-0.000122,0.000000,90.332031,-169.677734,4.581985,86,0.000000,0
100,0,1773659050045,0,0.000977,-0.000122,0.000000,109.863281,-164.794922,5.072007,86,0.000000,0
100,0,1773659050047,0,0.001221,-0.000122,0.000000,114.746094,-157.470703,5.540724,86,0.000000,0
100,0,1773659050048,0,0.001343,-0.000122,0.000000,115.966797,-153.808594,5.796387,86,0.000000,0
100,0,1773659050093,0,0.001587,-0.000122,0.000000,131.835938,-142.822266,416.259766,86,0.000000,0
100,0,1773659050094,0,0.001831,0.000610,-0.000244,191.650391,-81.787109,5.775082,86,0.000000,0
100,0,1773659050096,0,0.001831,0.001221,-0.000366,168.457031,-81.787109,339.355469,86,0.000000,0
100,0,1773659050143,0,0.001587,0.001831,0.000000,-37.841797,-70.800781,247.802734,86,0.000000,0
100,0,1773659050144,0,0.001221,0.001709,0.000244,-86.669922,-41.503906,135.498047,86,0.000000,0
100,0,1773659050145,0,0.001221,0.001831,0.000122,-63.476562,-13.427734,47.607422,86,0.000000,0
100,0,1773659050192,0,0.001099,0.001465,0.000000,-61.035156,26.855469,-90.332031,86,0.000000,0
100,0,1773659050192,0,0.001221,0.001099,0.000122,-34.179688,39.062500,-4.302320,86,0.000000,0
100,0,1773659050193,0,0.001343,0.000977,0.000122,-20.751953,42.724609,-4.941479,86,0.000000,0
100,0,1773659050241,0,0.001465,-0.000244,0.000488,-57.373047,45.166016,-209.960938,86,0.000000,0
100,0,1773659050242,0,0.001221,-0.001831,0.000854,9.765625,59.814453,-3.705772,86,0.000000,0
100,0,1773659050243,0,0.001465,-0.000977,0.000732,133.056641,76.904297,-4.089267,86,0.000000,0
100,0,1773659050289,0,0.001831,0.000732,-0.000122,169.677734,15.869141,-230.712891,86,0.000000,0
100,0,1773659050291,0,0.001709,0.000977,-0.001099,177.001953,-46.386719,-5.793690,86,0.000000,0
100,0,1773659050292,0,0.001343,0.001099,-0.000488,200.195312,-102.539062,-6.262406,86,0.000000,0
100,0,1773659050337,0,0.000244,0.000244,-0.000122,59.814453,-7.324219,-197.753906,86,0.000000,0
100,0,1773659050338,0,0.000977,0.000610,0.000000,12.207031,7.324219,-3.897519,86,0.000000,0
100,0,1773659050338,0,0.001099,0.000854,-0.000122,-56.152344,19.531250,-3.641856,86,0.000000,0
100,0,1773659050385,0,0.000977,0.000000,-0.000122,-113.525391,24.414062,-2.938781,86,0.000000,0
100,0,1773659050387,0,0.000977,-0.000122,-0.000244,-19.531250,19.531250,-2.533981,86,0.000000,0
100,0,1773659050388,0,0.000977,0.000000,-0.000122,-2.441406,25.634766,-2.491370,86,0.000000,0
100,0,1773659050434,0,0.000977,0.000000,0.000000,7.324219,19.531250,-72.021484,86,0.000000,0
100,0,1773659050435,0,0.000977,0.000000,0.000000,29.296875,17.089844,-63.476562,86,0.000000,0
100,0,1773659050436,0,0.000977,0.000000,-0.000122,26.855469,28.076172,-2.022654,86,0.000000,0
100,0,1773659050483,0,0.000854,0.000244,-0.000244,-29.296875,32.958984,-1.766990,86,0.000000,0
100,0,1773659050485,0,0.000854,0.000000,-0.000122,-41.503906,26.855469,-1.639159,86,0.000000,0
100,0,1773659050485,0,0.000854,0.000000,0.000000,-26.855469,21.972656,-1.660464,86,0.000000,0
100,0,1773659050534,0,0.000977,0.000000,0.000000,9.765625,21.972656,-1.681769,86,0.000000,0
100,0,1773659050536,0,0.000977,0.000122,-0.000122,-3.662109,20.751953,-1.639159,86,0.000000,0
100,0,1773659050537,0,0.000977,0.000000,-0.000122,-14.648438,19.531250,-1.639159,86,0.000000,0
100,0,1773659050582,0,0.000854,0.000122,-0.000122,-20.751953,18.310547,-1.681769,86,0.000000,0
100,0,1773659050584,0,0.000854,0.000000,-0.000122,-21.972656,18.310547,-1.745685,86,0.000000,0
100,0,1773659050586,0,0.000854,0.000000,-0.000122,-18.310547,19.531250,-46.386719,86,0.000000,0
100,0,1773659050631,0,0.000977,0.000000,0.000000,-17.089844,20.751953,-56.152344,86,0.000000,0
100,0,1773659050633,0,0.000977,0.000000,0.000000,-13.427734,20.751953,-2.107875,86,0.000000,0
100,0,1773659050633,0,0.000977,0.000000,0.000000,-13.427734,20.751953,-2.150486,86,0.000000,0
100,0,1773659050679,0,0.000977,0.000000,0.000000,-10.986328,21.972656,-2.214401,86,0.000000,0
100,0,1773659050680,0,0.001099,0.000000,0.000000,-6.103516,24.414062,-2.320928,86,0.000000,0
100,0,1773659050682,0,0.001099,0.000000,-0.000122,-8.544922,25.634766,-79.345703,86,0.000000,0
100,0,1773659050729,0,0.001099,0.000000,-0.000122,-7.324219,30.517578,-2.576591,86,0.000000,0
100,0,1773659050729,0,0.001221,0.000000,0.000000,-17.089844,34.179688,-2.725729,86,0.000000,0
100,0,1773659050730,0,0.001221,0.000000,0.000000,-19.531250,35.400391,-2.853560,86,0.000000,0
100,0,1773659050779,0,0.001221,0.000000,0.000000,-23.193359,41.503906,-3.130529,86,0.000000,0
100,0,1773659050782,0,0.001221,0.000000,0.000000,-19.531250,48.828125,-140.380859,86,0.000000,0
100,0,1773659050783,0,0.001221,0.000000,0.000000,-15.869141,52.490234,-148.925781,86,0.000000,0
100,0,1773659050825,0,0.001221,0.000000,-0.000244,-31.738281,57.373047,-3.897519,86,0.000000,0
100,0,1773659050825,0,0.001343,0.000000,-0.000244,-64.697266,61.035156,-4.174488,86,0.000000,0
100,0,1773659050827,0,0.001465,-0.000122,-0.000366,-79.345703,62.255859,-4.281014,86,0.000000,0
100,0,1773659050872,0,0.001587,-0.000366,-0.000488,-106.201172,57.373047,-4.387541,86,0.000000,0
100,0,1773659050874,0,0.001587,-0.000366,-0.000488,-112.304688,50.048828,-4.451457,86,0.000000,0
100,0,1773659050875,0,0.001587,-0.000244,-0.000488,-113.525391,43.945312,-4.430151,86,0.000000,0
100,0,1773659050922,0,0.001587,0.000366,-0.000366,-84.228516,35.400391,-4.387541,86,0.000000,0
100,0,1773659050923,0,0.001587,0.000366,-0.000366,-108.642578,29.296875,-4.067962,86,0.000000,0
100,0,1773659050923,0,0.001587,0.000122,-0.000244,-119.628906,24.414062,-3.812298,86,0.000000,0
100,0,1773659050972,0,0.000854,-0.000488,-0.000488,-147.705078,12.207031,-2.427454,86,0.000000,0
100,0,1773659050972,0,0.000488,0.000000,-0.000122,-174.560547,21.972656,-1.980043,86,0.000000,0
100,0,1773659050973,0,0.000244,0.000244,-0.000366,-158.691406,-25.634766,-2.065264,86,0.000000,0
100,0,1773659051022,0,0.000122,-0.000122,-0.000488,-166.015625,-63.476562,-4.882812,86,0.000000,0
100,0,1773659051023,0,0.000244,-0.000977,0.000000,-146.484375,-78.125000,62.255859,86,0.000000,0
100,0,1773659051023,0,0.000244,-0.000854,0.000000,-73.242188,-69.580078,76.904297,86,0.000000,0
100,0,1773659051071,0,0.000366,-0.000122,0.000000,26.855469,-115.966797,0.960087,86,0.000000,0
100,0,1773659051072,0,0.000366,0.000000,-0.000122,29.296875,-136.718750,1.663161,86,0.000000,0
100,0,1773659051073,0,0.000366,-0.000122,-0.000122,34.179688,-150.146484,1.961435,86,0.000000,0
100,0,1773659051117,0,0.000610,-0.000244,0.000000,69.580078,-181.884766,211.181641,86,0.000000,0
100,0,1773659051118,0,0.000854,-0.000122,0.000000,95.214844,-184.326172,3.282363,86,0.000000,0
100,0,1773659051119,0,0.000732,-0.000122,0.000000,96.435547,-189.208984,3.559332,86,0.000000,0
100,0,1773659051215,0,0.000854,-0.000122,0.000000,85.449219,-186.767578,4.028048,86,0.000000,0
100,0,1773659051215,0,0.001099,0.000000,0.000000,93.994141,-184.326172,4.539375,86,0.000000,0
100,0,1773659051218,0,0.001221,0.000000,0.000000,87.890625,-179.443359,4.795039,86,0.000000,0
100,0,1773659051264,0,0.001343,-0.000122,0.000000,80.566406,-177.001953,5.348976,86,0.000000,0
100,0,1773659051267,0,0.001831,0.000122,-0.000122,141.601562,-150.146484,410.156250,86,0.000000,0
100,0,1773659051267,0,0.001831,0.000244,0.000000,135.498047,-139.160156,5.988135,86,0.000000,0
100,0,1773659051314,0,0.001831,0.000854,0.000000,34.179688,-80.566406,356.445312,86,0.000000,0
100,0,1773659051318,0,0.001465,0.000977,0.000000,0.000000,-48.828125,266.113281,86,0.000000,0
100,0,1773659051319,0,0.001099,0.001465,-0.000244,-3.662109,-58.593750,2.877563,86,0.000000,0
100,0,1773659051363,0,0.001099,0.001831,0.000366,-144.042969,-34.179688,96.435547,86,0.000000,0
100,0,1773659051364,0,0.001099,0.000977,0.000244,-104.980469,8.544922,-1.660464,86,0.000000,0
100,0,1773659051365,0,0.001221,0.001099,0.000122,-100.097656,29.296875,-91.552734,86,0.000000,0
100,0,1773659051409,0,0.001221,0.000610,0.000122,-103.759766,53.710938,-3.918825,86,0.000000,0
100,0,1773659051413,0,0.001343,0.000366,0.000122,-68.359375,59.814453,-4.664510,86,0.000000,0
100,0,1773659051413,0,0.001343,0.000244,0.000000,-42.724609,56.152344,-4.856257,86,0.000000,0
100,0,1773659051463,0,0.001099,-0.000610,0.000000,-58.593750,39.062500,-180.664062,86,0.000000,0
100,0,1773659051463,0,0.000610,-0.001831,0.000000,74.462891,10.986328,-3.173139,86,0.000000,0
100,0,1773659051464,0,0.001221,-0.001221,0.000244,152.587891,37.841797,-3.386192,86,0.000000,0
100,0,1773659051507,0,0.001831,-0.000122,-0.000122,207.519531,19.531250,-3.684466,86,0.000000,0
100,0,1773659051508,0,0.001831,0.001831,-0.000122,231.933594,-18.310547,-252.685547,86,0.000000,0
100,0,1773659051509,0,0.001587,0.001343,0.000122,92.773438,19.531250,-4.920173,86,0.000000,0
100,0,1773659051559,0,0.000244,0.000000,-0.000244,-20.751953,-13.427734,-3.897519,86,0.000000,0
100,0,1773659051561,0,0.000854,0.000732,0.000000,-30.517578,-2.441406,-3.130529,86,0.000000,0
100,0,1773659051563,0,0.000977,0.000610,-0.000244,-85.449219,-4.882812,-2.832255,86,0.000000,0
100,0,1773659051607,0,0.000977,0.000000,-0.000122,-107.421875,7.324219,-2.342233,86,0.000000,0
100,0,1773659051608,0,0.000977,0.000000,-0.000244,-46.386719,-2.441406,-2.129180,86,0.000000,0
100,0,1773659051608,0,0.000854,0.000000,-0.000244,-35.400391,-1.220703,-2.043959,86,0.000000,0
100,0,1773659051655,0,0.000854,0.000000,-0.000244,-12.207031,-1.220703,-43.945312,86,0.000000,0
100,0,1773659051657,0,0.000977,0.000000,-0.000122,-24.414062,0.000000,-32.958984,86,0.000000,0
100,0,1773659051658,0,0.000854,0.000000,-0.000244,-32.958984,-1.220703,-28.076172,86,0.000000,0
100,0,1773659051703,0,0.000854,0.000122,-0.000244,-53.710938,4.882812,-23.193359,86,0.000000,0
100,0,1773659051704,0,0.000854,0.000000,-0.000244,-52.490234,1.220703,-24.414062,86,0.000000,0
100,0,1773659051705,0,0.000854,0.000000,-0.000244,-42.724609,0.000000,-1.468716,86,0.000000,0
100,0,1773659051751,0,0.000854,0.000000,-0.000244,-42.724609,0.000000,-1.575243,86,0.000000,0
100,0,1773659051752,0,0.000854,0.000000,-0.000366,-43.945312,2.441406,-1.639159,86,0.000000,0
100,0,1773659051753,0,0.000854,0.000000,-0.000366,-51.269531,4.882812,-1.681769,86,0.000000,0
100,0,1773659051801,0,0.000854,0.000000,-0.000244,-56.152344,7.324219,-46.386719,86,0.000000,0
100,0,1773659051802,0,0.000977,0.000000,-0.000122,-43.945312,7.324219,-54.931641,86,0.000000,0
100,0,1773659051803,0,0.000977,0.000000,-0.000122,-41.503906,6.103516,-58.593750,86,0.000000,0
100,0,1773659051848,0,0.000977,0.000000,-0.000244,-37.841797,4.882812,-2.107875,86,0.000000,0
100,0,1773659051850,0,0.000977,0.000000,-0.000244,-30.517578,14.648438,-68.359375,86,0.000000,0
100,0,1773659051851,0,0.000977,0.000000,-0.000244,-26.855469,19.531250,-2.235707,86,0.000000,0
100,0,1773659051899,0,0.000977,0.000000,-0.000244,-18.310547,24.414062,-2.299623,86,0.000000,0
100,0,1773659051900,0,0.000854,0.000122,-0.000244,-13.427734,18.310547,-78.125000,86,0.000000,0
100,0,1773659051902,0,0.000854,0.000122,-0.000244,-41.503906,19.531250,-2.363539,86,0.000000,0
100,0,1773659051948,0,0.000977,0.000000,-0.000244,-12.207031,21.972656,-2.533981,86,0.000000,0
100,0,1773659051948,0,0.000977,0.000122,-0.000122,-4.882812,18.310547,-2.661813,86,0.000000,0
100,0,1773659051949,0,0.000977,0.000122,-0.000244,-10.986328,19.531250,-2.704423,86,0.000000,0
100,0,1773659051994,0,0.001099,0.000122,-0.000244,-26.855469,17.089844,-107.421875,86,0.000000,0
100,0,1773659051996,0,0.001099,0.000122,-0.000244,-37.841797,17.089844,-3.087918,86,0.000000,0
100,0,1773659051999,0,0.001099,0.000122,-0.000244,-42.724609,15.869141,-3.215750,86,0.000000,0
100,0,1773659052046,0,0.001221,0.000122,-0.000244,-62.255859,18.310547,-3.450108,86,0.000000,0
100,0,1773659052050,0,0.001221,0.000122,-0.000244,-92.773438,18.310547,-152.587891,86,0.000000,0
100,0,1773659052051,0,0.001221,0.000122,-0.000244,-113.525391,17.089844,-158.691406,86,0.000000,0
100,0,1773659052092,0,0.001465,0.000122,-0.000244,-177.001953,17.089844,-3.982740,86,0.000000,0
100,0,1773659052093,0,0.001709,-0.000244,-0.000366,-218.505859,12.207031,-4.195793,86,0.000000,0
100,0,1773659052095,0,0.001831,-0.000244,-0.000366,-234.375000,10.986328,-4.217099,86,0.000000,0
100,0,1773659052141,0,0.001709,-0.000610,-0.000610,-249.023438,6.103516,-4.217099,86,0.000000,0
100,0,1773659052142,0,0.001465,-0.000488,-0.000488,-170.898438,-2.441406,-187.988281,86,0.000000,0
100,0,1773659052144,0,0.001465,0.000000,-0.000366,-124.511719,-3.662109,-191.650391,86,0.000000,0
100,0,1773659052239,0,0.001587,0.000732,-0.000122,-148.925781,31.738281,-3.876214,86,0.000000,0
100,0,1773659052240,0,0.001343,0.000244,-0.000366,-192.871094,10.986328,-3.577940,86,0.000000,0
100,0,1773659052240,0,0.000977,0.000000,-0.000488,-196.533203,-17.089844,-3.343582,86,0.000000,0
100,0,1773659052240,0,0.000610,-0.000610,0.000122,-245.361328,-10.986328,-1.703074,86,0.000000,0
100,0,1773659052288,0,0.000122,0.000000,-0.000244,-152.587891,-98.876953,-1.127832,86,0.000000,0
100,0,1773659052289,0,0.000244,-0.000977,0.000000,-130.615234,-135.498047,111.083984,86,0.000000,0
100,0,1773659052291,0,0.000366,-0.000610,0.000000,-75.683594,-139.160156,1.258361,86,0.000000,0
100,0,1773659052337,0,0.000366,0.000000,0.000000,-39.062500,-177.001953,163.574219,86,0.000000,0
100,0,1773659052339,0,0.000488,-0.000244,0.000000,-42.724609,-200.195312,2.664510,86,0.000000,0
100,0,1773659052340,0,0.000610,-0.000366,0.000122,-24.414062,-209.960938,2.941478,86,0.000000,0
100,0,1773659052385,0,0.000977,-0.000366,0.000244,32.958984,-214.843750,260.009766,86,0.000000,0
100,0,1773659052385,0,0.000977,-0.000122,0.000122,52.490234,-211.181641,285.644531,86,0.000000,0
100,0,1773659052387,0,0.000977,-0.000122,0.000244,51.269531,-206.298828,299.072266,86,0.000000,0
100,0,1773659052436,0,0.001099,-0.000122,0.000244,34.179688,-201.416016,332.031250,86,0.000000,0
100,0,1773659052437,0,0.001221,-0.000122,0.000244,23.193359,-191.650391,5.263755,86,0.000000,0
100,0,1773659052438,0,0.001343,0.000000,0.000244,24.414062,-189.208984,5.498113,86,0.000000,0
100,0,1773659052483,0,0.001587,-0.000122,0.000122,14.648438,-175.781250,400.390625,86,0.000000,0
100,0,1773659052484,0,0.001831,-0.000244,0.000122,24.414062,-163.574219,422.363281,86,0.000000,0
100,0,1773659052485,0,0.001831,-0.000244,0.000000,41.503906,-157.470703,428.466797,86,0.000000,0
100,0,1773659052530,0,0.001831,0.000000,0.000000,84.228516,-140.380859,432.128906,86,0.000000,0
100,0,1773659052533,0,0.001831,0.000366,0.000000,79.345703,-109.863281,415.039062,86,0.000000,0
100,0,1773659052534,0,0.001831,0.000610,0.000122,47.607422,-80.566406,394.287109,86,0.000000,0
100,0,1773659052581,0,0.001831,0.000732,0.000122,4.882812,-31.738281,311.279297,86,0.000000,0
100,0,1773659052582,0,0.000854,0.001831,-0.000244,1.220703,-45.166016,208.740234,86,0.000000,0
100,0,1773659052583,0,0.000977,0.001831,0.000122,-96.435547,-34.179688,140.380859,86,0.000000,0
100,0,1773659052628,0,0.000977,0.001221,0.000366,-124.511719,13.427734,-0.936084,86,0.000000,0
100,0,1773659052629,0,0.001099,0.001099,0.000122,-89.111328,54.931641,-3.130529,86,0.000000,0
100,0,1773659052677,0,0.001099,0.000854,0.000000,-87.890625,68.359375,-162.353516,86,0.000000,0
100,0,1773659052678,0,0.001343,0.000488,0.000122,-53.710938,81.787109,-217.285156,86,0.000000,0
100,0,1773659052680,0,0.000977,-0.001831,-0.000854,-85.449219,50.048828,-3.663161,86,0.000000,0
100,0,1773659052729,0,0.001099,-0.001099,0.000244,83.007812,34.179688,-3.641856,86,0.000000,0
100,0,1773659052730,0,0.001831,0.000244,-0.000366,125.732422,10.986328,-184.326172,86,0.000000,0
100,0,1773659052731,0,0.001831,0.000610,-0.000244,133.056641,-1.220703,-4.941479,86,0.000000,0
100,0,1773659052775,0,0.000854,0.000732,-0.000244,69.580078,0.000000,-219.726562,86,0.000000,0
100,0,1773659052777,0,0.000610,0.000122,-0.000122,21.972656,6.103516,-3.897519,86,0.000000,0
100,0,1773659052779,0,0.000488,0.000488,-0.000122,23.193359,-10.986328,-150.146484,86,0.000000,0
100,0,1773659052823,0,0.000977,0.000488,-0.000244,-83.007812,0.000000,-2.874866,86,0.000000,0
100,0,1773659052824,0,0.000854,0.000000,-0.000244,-85.449219,2.441406,-72.021484,86,0.000000,0
100,0,1773659052825,0,0.000854,0.000000,-0.000244,-64.697266,2.441406,-2.086570,86,0.000000,0
100,0,1773659052873,0,0.000977,0.000000,-0.000244,-42.724609,2.441406,-1.873517,86,0.000000,0
100,0,1773659052874,0,0.000854,0.000000,-0.000244,-26.855469,2.441406,-1.703074,86,0.000000,0
100,0,1773659052877,0,0.000854,0.000000,-0.000122,-18.310547,0.000000,-36.621094,86,0.000000,0
100,0,1773659052922,0,0.000854,0.000000,-0.000244,-14.648438,-3.662109,-31.738281,86,0.000000,0
100,0,1773659052922,0,0.000854,0.000000,-0.000244,-40.283203,4.882812,-26.855469,86,0.000000,0
100,0,1773659052923,0,0.000854,0.000000,-0.000244,-42.724609,3.662109,-25.634766,86,0.000000,0
100,0,1773659052971,0,0.000854,0.000000,-0.000244,-30.517578,-1.220703,-28.076172,86,0.000000,0
100,0,1773659052973,0,0.000854,0.000000,-0.000244,-35.400391,-1.220703,-32.958984,86,0.000000,0
100,0,1773659052974,0,0.000854,0.000000,-0.000366,-34.179688,-2.441406,-35.400391,86,0.000000,0
100,0,1773659053018,0,0.000854,0.000000,-0.000366,-50.048828,0.000000,-39.062500,86,0.000000,0
100,0,1773659053020,0,0.000854,0.000000,-0.000244,-51.269531,2.441406,-1.745685,86,0.000000,0
100,0,1773659053022,0,0.000854,0.000000,-0.000244,-48.828125,2.441406,-1.830906,86,0.000000,0
100,0,1773659053068,0,0.000854,0.000000,-0.000244,-43.945312,2.441406,-54.931641,86,0.000000,0
100,0,1773659053069,0,0.000854,0.000000,-0.000244,-39.062500,2.441406,-61.035156,86,0.000000,0
100,0,1773659053070,0,0.000854,0.000000,-0.000244,-36.621094,3.662109,-2.107875,86,0.000000,0
100,0,1773659053118,0,0.000977,0.000000,-0.000244,-29.296875,15.869141,-68.359375,86,0.000000,0
100,0,1773659053120,0,0.000854,0.000000,-0.000366,-25.634766,26.855469,-2.235707,86,0.000000,0
100,0,1773659053122,0,0.000854,0.000122,-0.000244,-25.634766,21.972656,-2.235707,86,0.000000,0
100,0,1773659053166,0,0.000854,0.000122,-0.000244,-35.400391,18.310547,-69.580078,86,0.000000,0
100,0,1773659053168,0,0.000854,0.000122,-0.000244,-41.503906,17.089844,-2.278317,86,0.000000,0
100,0,1773659053168,0,0.000977,0.000122,-0.000244,-37.841797,14.648438,-2.320928,86,0.000000,0
100,0,1773659053215,0,0.000977,0.000122,-0.000244,-41.503906,13.427734,-84.228516,86,0.000000,0
100,0,1773659053215,0,0.000977,0.000122,-0.000244,-48.828125,12.207031,-2.640507,86,0.000000,0
100,0,1773659053217,0,0.001099,0.000000,-0.000244,-47.607422,10.986328,-2.768339,86,0.000000,0
100,0,1773659053265,0,0.001099,0.000122,-0.000244,-58.593750,10.986328,-3.024002,86,0.000000,0
100,0,1773659053267,0,0.001221,0.000122,-0.000244,-75.683594,12.207031,-3.279666,86,0.000000,0
100,0,1773659053268,0,0.001221,0.000122,-0.000244,-85.449219,12.207031,-3.386192,86,0.000000,0
100,0,1773659053317,0,0.001221,0.000122,-0.000244,-120.849609,12.207031,-148.925781,86,0.000000,0
100,0,1773659053319,0,0.001343,0.000000,-0.000244,-161.132812,9.765625,-162.353516,86,0.000000,0
100,0,1773659053321,0,0.001465,0.000000,-0.000366,-178.222656,8.544922,-3.940130,86,0.000000,0
100,0,1773659053358,0,0.001587,-0.000122,-0.000488,-223.388672,2.441406,-4.067962,86,0.000000,0
100,0,1773659053360,0,0.001709,-0.000366,-0.000610,-253.906250,-3.662109,-4.067962,86,0.000000,0
100,0,1773659053362,0,0.001709,-0.000366,-0.000732,-253.906250,-8.544922,-4.046657,86,0.000000,0
100,0,1773659053409,0,0.001221,0.000000,-0.000610,-207.519531,-23.193359,-4.046657,86,0.000000,0
100,0,1773659053410,0,0.001465,0.000610,-0.000122,-181.884766,0.000000,-3.982740,86,0.000000,0
100,0,1773659053414,0,0.001465,0.000610,-0.000244,-212.402344,9.765625,-3.684466,86,0.000000,0
100,0,1773659053462,0,0.001343,0.000244,-0.000366,-247.802734,-17.089844,-3.279666,86,0.000000,0
100,0,1773659053463,0,0.000610,-0.000244,-0.000244,-286.865234,-67.138672,-2.406149,86,0.000000,0
100,0,1773659053464,0,0.000488,-0.000488,0.000122,-303.955078,-47.607422,-1.809601,86,0.000000,0
100,0,1773659053505,0,0.000000,0.000122,-0.000610,-213.623047,-128.173828,-1.852211,86,0.000000,0
100,0,1773659053506,0,0.000244,-0.000244,-0.000244,-234.375000,-156.250000,-0.680421,86,0.000000,0
100,0,1773659053507,0,0.000244,-0.000854,-0.000122,-250.244141,-155.029297,-0.062567,86,0.000000,0
100,0,1773659053554,0,0.000366,-0.000977,0.000122,-124.511719,-166.015625,92.773438,86,0.000000,0
100,0,1773659053555,0,0.000488,-0.000366,0.000122,-40.283203,-197.753906,119.628906,86,0.000000,0
100,0,1773659053555,0,0.000610,-0.000244,0.000122,-29.296875,-207.519531,1.300971,86,0.000000,0
100,0,1773659053652,0,0.000732,-0.000366,0.000244,-10.986328,-219.726562,2.025351,86,0.000000,0
100,0,1773659053653,0,0.000854,-0.000366,0.000244,24.414062,-224.609375,2.707120,86,0.000000,0
100,0,1773659053700,0,0.000854,-0.000488,0.000244,42.724609,-228.271484,2.984089,86,0.000000,0
100,0,1773659053702,0,0.000977,-0.000244,0.000244,63.476562,-223.388672,3.665858,86,0.000000,0
100,0,1773659053703,0,0.001343,-0.000122,0.000244,-4.882812,-174.560547,5.647250,86,0.000000,0
100,0,1773659053704,0,0.001465,-0.000122,0.000244,-13.427734,-168.457031,5.881608,86,0.000000,0
100,0,1773659053751,0,0.001709,-0.000244,0.000122,-12.207031,-155.029297,416.259766,86,0.000000,0
100,0,1773659053752,0,0.001831,-0.000244,0.000122,19.531250,-142.822266,6.542072,86,0.000000,0
100,0,1773659053753,0,0.001831,-0.000122,0.000122,37.841797,-137.939453,6.520767,86,0.000000,0
100,0,1773659053798,0,0.001831,0.000244,0.000122,58.593750,-118.408203,6.201188,86,0.000000,0
100,0,1773659053800,0,0.001831,0.000854,0.000244,12.207031,-67.138672,372.314453,86,0.000000,0
100,0,1773659053802,0,0.001831,0.000854,0.000244,-8.544922,-35.400391,4.731122,86,0.000000,0
100,0,1773659053848,0,0.001343,0.001221,0.000000,10.986328,-8.544922,2.600594,86,0.000000,0
100,0,1773659053849,0,0.000977,0.001831,0.000244,-90.332031,0.000000,0.257012,86,0.000000,0
100,0,1773659053850,0,0.001099,0.001465,0.000366,-113.525391,18.310547,-0.850863,86,0.000000,0
100,0,1773659053898,0,0.001221,0.001343,0.000122,-78.125000,58.593750,-2.874866,86,0.000000,0
100,0,1773659053898,0,0.001221,0.000732,0.000122,-81.787109,84.228516,-191.650391,86,0.000000,0
100,0,1773659053899,0,0.001221,0.000000,-0.000977,-63.476562,59.814453,-4.025351,86,0.000000,0
100,0,1773659053947,0,0.000854,-0.001831,-0.000610,-95.214844,7.324219,-2.917476,86,0.000000,0
100,0,1773659053948,0,0.001343,-0.000244,0.000244,120.849609,53.710938,-3.663161,86,0.000000,0
100,0,1773659053948,0,0.001831,0.000000,0.000122,92.773438,56.152344,-3.599245,86,0.000000,0
100,0,1773659053997,0,0.001831,0.000732,0.000000,85.449219,23.193359,-4.834952,86,0.000000,0
100,0,1773659053998,0,0.000732,0.000366,-0.000122,-37.841797,26.855469,-4.302320,86,0.000000,0
100,0,1773659054000,0,0.000244,-0.000244,-0.000366,-1.220703,6.103516,-4.025351,86,0.000000,0
100,0,1773659054044,0,0.000732,0.000610,0.000000,61.035156,-14.648438,-140.380859,86,0.000000,0
100,0,1773659054045,0,0.001221,0.000366,-0.000244,-103.759766,12.207031,-107.421875,86,0.000000,0
100,0,1773659054046,0,0.000854,0.000122,-0.000366,-106.201172,14.648438,-90.332031,86,0.000000,0
100,0,1773659054092,0,0.000854,0.000000,-0.000244,-95.214844,17.089844,-2.214401,86,0.000000,0
100,0,1773659054093,0,0.000854,-0.000122,-0.000244,-69.580078,12.207031,-2.086570,86,0.000000,0
100,0,1773659054094,0,0.000854,-0.000122,-0.000244,-45.166016,8.544922,-2.001348,86,0.000000,0
100,0,1773659054140,0,0.000854,0.000000,-0.000244,0.000000,0.000000,-1.894822,86,0.000000,0
100,0,1773659054141,0,0.000977,0.000000,-0.000244,-10.986328,6.103516,-1.745685,86,0.000000,0
100,0,1773659054143,0,0.000854,0.000000,-0.000244,-21.972656,8.544922,-1.660464,86,0.000000,0
100,0,1773659054188,0,0.000854,0.000000,-0.000244,-40.283203,10.986328,-1.468716,86,0.000000,0
100,0,1773659054190,0,0.000854,0.000000,-0.000244,-41.503906,7.324219,-1.426106,86,0.000000,0
100,0,1773659054192,0,0.000854,0.000000,-0.000244,-34.179688,6.103516,-25.634766,86,0.000000,0
100,0,1773659054238,0,0.000854,0.000000,-0.000244,-19.531250,1.220703,-29.296875,86,0.000000,0
100,0,1773659054238,0,0.000854,0.000122,-0.000366,-41.503906,4.882812,-28.076172,86,0.000000,0
100,0,1773659054240,0,0.000854,0.000000,-0.000366,-51.269531,6.103516,-1.490022,86,0.000000,0
100,0,1773659054287,0,0.000854,0.000000,-0.000244,-45.166016,6.103516,-1.553937,86,0.000000,0
100,0,1773659054288,0,0.000854,0.000000,-0.000244,-45.166016,7.324219,-1.575243,86,0.000000,0
100,0,1773659054288,0,0.000854,0.000000,-0.000244,-43.945312,7.324219,-1.617853,86,0.000000,0
100,0,1773659054335,0,0.000854,0.000000,-0.000244,-41.503906,8.544922,-1.681769,86,0.000000,0
100,0,1773659054337,0,0.000977,0.000000,-0.000244,-35.400391,15.869141,-1.788296,86,0.000000,0
100,0,1773659054338,0,0.000854,0.000000,-0.000244,-30.517578,23.193359,-1.852211,86,0.000000,0
100,0,1773659054384,0,0.000977,0.000000,-0.000244,-25.634766,26.855469,-1.958738,86,0.000000,0
100,0,1773659054387,0,0.000854,0.000000,-0.000244,-25.634766,28.076172,-2.043959,86,0.000000,0
100,0,1773659054388,0,0.000977,0.000000,-0.000244,-28.076172,29.296875,-63.476562,86,0.000000,0
100,0,1773659054431,0,0.000977,0.000000,-0.000244,-31.738281,29.296875,-73.242188,86,0.000000,0
100,0,1773659054433,0,0.000977,0.000000,-0.000244,-24.414062,24.414062,-2.555286,86,0.000000,0
100,0,1773659054434,0,0.001099,0.000000,-0.000244,-28.076172,25.634766,-2.661813,86,0.000000,0
100,0,1773659054483,0,0.001099,0.000000,-0.000244,-36.621094,24.414062,-2.896171,86,0.000000,0
100,0,1773659054483,0,0.001099,0.000122,-0.000244,-35.400391,23.193359,-3.130529,86,0.000000,0
100,0,1773659054484,0,0.001099,0.000122,-0.000244,-46.386719,23.193359,-3.237055,86,0.000000,0
100,0,1773659054535,0,0.001221,0.000122,-0.000244,-64.697266,21.972656,-141.601562,86,0.000000,0
100,0,1773659054536,0,0.001221,0.000122,-0.000122,-86.669922,24.414062,-150.146484,86,0.000000,0
100,0,1773659054537,0,0.001343,0.000122,-0.000122,-104.980469,24.414062,-153.808594,86,0.000000,0
100,0,1773659054579,0,0.001343,0.000000,-0.000122,-156.250000,25.634766,-3.812298,86,0.000000,0
100,0,1773659054579,0,0.001587,-0.000122,-0.000244,-190.429688,21.972656,-169.677734,86,0.000000,0
100,0,1773659054580,0,0.001587,-0.000122,-0.000244,-212.402344,20.751953,-3.982740,86,0.000000,0
100,0,1773659054629,0,0.001587,-0.000488,-0.000488,-234.375000,14.648438,-174.560547,86,0.000000,0
100,0,1773659054630,0,0.001465,-0.000610,-0.000610,-184.326172,9.765625,-4.195793,86,0.000000,0
100,0,1773659054632,0,0.001343,-0.000244,-0.000488,-139.160156,6.103516,-4.302320,86,0.000000,0
100,0,1773659054675,0,0.001709,0.000610,-0.000122,-106.201172,34.179688,-190.429688,86,0.000000,0
100,0,1773659054678,0,0.001465,0.000244,-0.000244,-174.560547,37.841797,-3.812298,86,0.000000,0
100,0,1773659054726,0,0.001465,0.000000,-0.000244,-164.794922,35.400391,-137.939453,86,0.000000,0
100,0,1773659054727,0,0.000854,-0.000122,-0.000244,-201.416016,1.220703,-84.228516,86,0.000000,0
100,0,1773659054729,0,0.000366,-0.000122,0.000366,-218.505859,24.414062,-19.531250,86,0.000000,0
100,0,1773659054729,0,0.000244,0.000488,-0.000366,-155.029297,8.544922,-39.062500,86,0.000000,0
100,0,1773659054775,0,0.000244,0.000122,-0.000366,-124.511719,-76.904297,8.544922,86,0.000000,0
100,0,1773659054776,0,0.000000,-0.000610,-0.000244,-172.119141,-125.732422,0.555286,86,0.000000,0
100,0,1773659054777,0,0.000244,-0.000854,0.000000,-120.849609,-135.498047,0.725728,86,0.000000,0
100,0,1773659054823,0,0.000488,-0.000366,0.000000,-7.324219,-129.394531,151.367188,86,0.000000,0
100,0,1773659054823,0,0.000488,0.000000,0.000000,-28.076172,-156.250000,184.326172,86,0.000000,0
100,0,1773659054824,0,0.000610,0.000000,0.000000,-43.945312,-161.132812,2.557983,86,0.000000,0
100,0,1773659054872,0,0.000732,-0.000366,0.000000,-31.738281,-185.546875,3.197142,86,0.000000,0
100,0,1773659054872,0,0.000854,-0.000366,0.000000,19.531250,-195.312500,3.644553,86,0.000000,0
100,0,1773659054873,0,0.000977,-0.000244,0.000122,40.283203,-197.753906,3.900217,86,0.000000,0
100,0,1773659054919,0,0.000977,-0.000244,0.000244,54.931641,-192.871094,4.411543,86,0.000000,0
100,0,1773659054922,0,0.001099,-0.000122,0.000122,64.697266,-184.326172,4.773733,86,0.000000,0
100,0,1773659054923,0,0.001221,-0.000122,0.000122,65.917969,-178.222656,4.986786,86,0.000000,0
100,0,1773659054969,0,0.001343,-0.000122,0.000122,64.697266,-167.236328,5.455503,86,0.000000,0
100,0,1773659054969,0,0.001465,-0.000244,0.000000,74.462891,-153.808594,5.902914,86,0.000000,0
100,0,1773659054970,0,0.001587,-0.000244,0.000000,106.201172,-147.705078,6.094661,86,0.000000,0
100,0,1773659055020,0,0.001831,-0.000122,0.000000,104.980469,-134.277344,422.363281,86,0.000000,0
100,0,1773659055022,0,0.001831,0.000000,0.000000,148.925781,-119.628906,421.142578,86,0.000000,0
100,0,1773659055022,0,0.001831,0.000000,0.000000,147.705078,-111.083984,6.201188,86,0.000000,0
100,0,1773659055068,0,0.001831,0.000732,0.000000,108.642578,-78.125000,378.417969,86,0.000000,0
100,0,1773659055069,0,0.001343,0.000977,0.000000,52.490234,-42.724609,3.729774,86,0.000000,0
100,0,1773659055070,0,0.001099,0.001587,-0.000244,29.296875,-61.035156,2.898868,86,0.000000,0
100,0,1773659055115,0,0.001099,0.001831,0.000366,-92.773438,-15.869141,85.449219,86,0.000000,0
100,0,1773659055117,0,0.001221,0.001343,0.000122,-32.958984,28.076172,-1.788296,86,0.000000,0
100,0,1773659055120,0,0.001221,0.001343,0.000000,-36.621094,47.607422,-2.874866,86,0.000000,0
100,0,1773659055166,0,0.001221,0.000854,0.000000,-24.414062,68.359375,-211.181641,86,0.000000,0
100,0,1773659055167,0,0.001465,0.000488,-0.000854,-10.986328,54.931641,-5.261058,86,0.000000,0
100,0,1773659055168,0,0.001221,-0.001099,-0.000244,-90.332031,51.269531,-4.110572,86,0.000000,0
100,0,1773659055213,0,0.000854,-0.001587,0.000000,20.751953,28.076172,-155.029297,86,0.000000,0
100,0,1773659055216,0,0.001465,0.000244,0.000122,161.132812,53.710938,-169.677734,86,0.000000,0
100,0,1773659055219,0,0.001709,0.000366,-0.000122,85.449219,28.076172,-172.119141,86,0.000000,0
100,0,1773659055262,0,0.001831,0.000488,-0.000488,85.449219,0.000000,-5.111921,86,0.000000,0
100,0,1773659055263,0,0.000977,0.000488,-0.000122,53.710938,-18.310547,-219.726562,86,0.000000,0
100,0,1773659055263,0,0.000610,0.000000,-0.000122,15.869141,3.662109,-4.238404,86,0.000000,0
100,0,1773659055311,0,0.000854,0.000366,0.000000,37.841797,-9.765625,-161.132812,86,0.000000,0
100,0,1773659055312,0,0.001221,0.000488,-0.000122,-65.917969,14.648438,-129.394531,86,0.000000,0
100,0,1773659055318,0,0.000977,0.000122,-0.000244,-100.097656,12.207031,-3.002697,86,0.000000,0
100,0,1773659055359,0,0.000854,-0.000122,-0.000122,-69.580078,12.207031,-93.994141,86,0.000000,0
100,0,1773659055360,0,0.000977,0.000000,-0.000244,-19.531250,3.662109,-84.228516,86,0.000000,0
100,0,1773659055363,0,0.000977,0.000000,-0.000122,-4.882812,4.882812,-2.406149,86,0.000000,0
100,0,1773659055409,0,0.000854,0.000000,-0.000122,12.207031,0.000000,-67.138672,86,0.000000,0
100,0,1773659055410,0,0.000977,0.000122,-0.000244,1.220703,6.103516,-54.931641,86,0.000000,0
100,0,1773659055410,0,0.000977,0.000244,-0.000244,-24.414062,10.986328,-1.830906,86,0.000000,0
100,0,1773659055458,0,0.000977,0.000000,-0.000122,-50.048828,13.427734,-1.639159,86,0.000000,0
100,0,1773659055459,0,0.000977,0.000000,-0.000122,-29.296875,8.544922,-1.660464,86,0.000000,0
100,0,1773659055459,0,0.000977,0.000000,-0.000122,-20.751953,7.324219,-1.703074,86,0.000000,0
100,0,1773659055505,0,0.000977,0.000000,-0.000244,-10.986328,7.324219,-41.503906,86,0.000000,0
100,0,1773659055505,0,0.000977,0.000122,-0.000244,-36.621094,17.089844,-1.660464,86,0.000000,0
100,0,1773659055506,0,0.000854,0.000000,-0.000244,-47.607422,20.751953,-1.660464,86,0.000000,0
100,0,1773659055555,0,0.000854,0.000000,-0.000122,-42.724609,32.958984,-41.503906,86,0.000000,0
100,0,1773659055557,0,0.000854,0.000000,-0.000122,-32.958984,36.621094,-1.788296,86,0.000000,0
100,0,1773659055557,0,0.000854,0.000000,-0.000122,-28.076172,32.958984,-1.809601,86,0.000000,0
100,0,1773659055604,0,0.000854,0.000000,-0.000122,-30.517578,29.296875,-50.048828,86,0.000000,0
100,0,1773659055605,0,0.000854,0.000000,-0.000122,-21.972656,30.517578,-57.373047,86,0.000000,0
100,0,1773659055605,0,0.000854,0.000000,-0.000122,-15.869141,29.296875,-61.035156,86,0.000000,0
100,0,1773659055652,0,0.000977,0.000000,-0.000122,-15.869141,26.855469,-2.193096,86,0.000000,0
100,0,1773659055654,0,0.000977,0.000000,-0.000122,-13.427734,25.634766,-2.320928,86,0.000000,0
100,0,1773659055656,0,0.000977,0.000000,-0.000122,-12.207031,26.855469,-2.448760,86,0.000000,0
100,0,1773659055702,0,0.001099,0.000000,-0.000122,-14.648438,28.076172,-93.994141,86,0.000000,0
100,0,1773659055703,0,0.001221,0.000000,-0.000122,-21.972656,30.517578,-106.201172,86,0.000000,0
100,0,1773659055703,0,0.001221,0.000000,-0.000122,-25.634766,32.958984,-112.304688,86,0.000000,0
100,0,1773659055749,0,0.001221,0.000000,-0.000122,-39.062500,36.621094,-3.215750,86,0.000000,0
100,0,1773659055753,0,0.001221,0.000000,-0.000122,-47.607422,41.503906,-3.514024,86,0.000000,0
100,0,1773659055753,0,0.001221,0.000000,-0.000122,-53.710938,43.945312,-3.641856,86,0.000000,0
100,0,1773659055798,0,0.001343,0.000000,-0.000122,-84.228516,48.828125,-3.897519,86,0.000000,0
100,0,1773659055799,0,0.001465,0.000000,-0.000244,-120.849609,51.269531,-4.110572,86,0.000000,0
100,0,1773659055800,0,0.001587,-0.000122,-0.000244,-137.939453,51.269531,-4.238404,86,0.000000,0
100,0,1773659055848,0,0.001831,-0.000488,-0.000488,-156.250000,51.269531,-4.387541,86,0.000000,0
100,0,1773659055849,0,0.001587,-0.000610,-0.000610,-123.291016,40.283203,-198.974609,86,0.000000,0
100,0,1773659055850,0,0.001465,-0.000366,-0.000488,-93.994141,35.400391,-4.515373,86,0.000000,0
100,0,1773659055898,0,0.001587,0.000488,-0.000244,-48.828125,51.269531,-197.753906,86,0.000000,0
100,0,1773659055898,0,0.001587,0.000366,-0.000366,-81.787109,54.931641,-4.046657,86,0.000000,0
100,0,1773659055899,0,0.001587,0.000122,-0.000244,-81.787109,50.048828,-3.812298,86,0.000000,0
100,0,1773659055943,0,0.001099,-0.000244,-0.000488,-101.318359,34.179688,-3.109224,86,0.000000,0
100,0,1773659055944,0,0.000610,-0.000488,0.000366,-155.029297,59.814453,-1.596548,86,0.000000,0
100,0,1773659055945,0,0.000366,0.000244,-0.000366,-107.421875,53.710938,-1.766990,86,0.000000,0
100,0,1773659055993,0,0.000244,0.000000,-0.000244,-85.449219,-25.634766,-1.000000,86,0.000000,0
100,0,1773659055995,0,0.000000,-0.000488,-0.000366,-157.470703,-87.890625,67.138672,86,0.000000,0
100,0,1773659055997,0,0.000244,-0.000854,-0.000122,-158.691406,-79.345703,93.994141,86,0.000000,0
100,0,1773659056042,0,0.000366,-0.000732,0.000000,-15.869141,-62.255859,1.151834,86,0.000000,0
100,0,1773659056043,0,0.000488,0.000000,0.000000,37.841797,-98.876953,1.854909,86,0.000000,0
100,0,1773659056044,0,0.000488,0.000000,0.000000,32.958984,-108.642578,184.326172,86,0.000000,0
100,0,1773659056090,0,0.000488,-0.000244,0.000000,46.386719,-129.394531,3.026700,86,0.000000,0
100,0,1773659056092,0,0.000610,-0.000366,0.000000,96.435547,-142.822266,3.623248,86,0.000000,0
100,0,1773659056093,0,0.000732,-0.000366,0.000000,124.511719,-150.146484,3.942827,86,0.000000,0
100,0,1773659056139,0,0.000854,-0.000122,0.000000,139.160156,-155.029297,4.518070,86,0.000000,0
100,0,1773659056139,0,0.000977,-0.000122,0.000000,147.705078,-152.587891,5.114618,86,0.000000,0
100,0,1773659056139,0,0.001099,-0.000122,0.000000,146.484375,-147.705078,5.348976,86,0.000000,0
100,0,1773659056188,0,0.001343,0.000000,0.000000,142.822266,-135.498047,396.728516,86,0.000000,0
100,0,1773659056188,0,0.001587,-0.000122,0.000000,146.484375,-125.732422,6.307714,86,0.000000,0
100,0,1773659056189,0,0.001831,-0.000122,-0.000122,156.250000,-119.628906,6.520767,86,0.000000,0
100,0,1773659056237,0,0.001831,0.000000,-0.000244,174.560547,-107.421875,6.776431,86,0.000000,0
100,0,1773659056238,0,0.001831,0.000366,-0.000366,173.339844,-90.332031,434.570312,86,0.000000,0
100,0,1773659056239,0,0.001831,0.000488,-0.000366,169.677734,-84.228516,6.179883,86,0.000000,0
100,0,1773659056287,0,0.001831,0.001343,-0.000366,117.187500,-84.228516,4.816344,86,0.000000,0
100,0,1773659056288,0,0.001587,0.001831,0.000000,-45.166016,-70.800781,2.941478,86,0.000000,0
100,0,1773659056288,0,0.001343,0.001831,0.000122,-111.083984,-43.945312,2.067962,86,0.000000,0
100,0,1773659056337,0,0.001099,0.001831,0.000000,-92.773438,-4.882812,-0.041262,86,0.000000,0
100,0,1773659056338,0,0.001099,0.001343,0.000000,-91.552734,26.855469,-104.980469,86,0.000000,0
100,0,1773659056341,0,0.001099,0.001099,0.000000,-76.904297,35.400391,-3.727077,86,0.000000,0
100,0,1773659056382,0,0.001343,0.000977,0.000122,-46.386719,47.607422,-230.712891,86,0.000000,0
100,0,1773659056384,0,0.001587,-0.000977,0.000610,-86.669922,84.228516,-198.974609,86,0.000000,0
100,0,1773659056385,0,0.000977,-0.001831,-0.000488,-36.621094,47.607422,-152.587891,86,0.000000,0
100,0,1773659056430,0,0.001587,-0.000488,0.000610,93.994141,64.697266,-174.560547,86,0.000000,0
100,0,1773659056432,0,0.001831,0.000732,-0.000122,115.966797,19.531250,-224.609375,86,0.000000,0
100,0,1773659056433,0,0.001831,0.000854,-0.000488,85.449219,-9.765625,-244.140625,86,0.000000,0
100,0,1773659056482,0,0.001099,0.000366,-0.000366,107.421875,-43.945312,-5.410195,86,0.000000,0
100,0,1773659056482,0,0.000488,0.000488,-0.000122,89.111328,-25.634766,-4.153183,86,0.000000,0
100,0,1773659056483,0,0.000977,0.000854,-0.000122,43.945312,-7.324219,-3.854909,86,0.000000,0
100,0,1773659056528,0,0.001221,0.000366,-0.000122,-107.421875,17.089844,-3.002697,86,0.000000,0
100,0,1773659056530,0,0.000854,0.000000,-0.000122,-91.552734,17.089844,-89.111328,86,0.000000,0
100,0,1773659056530,0,0.000854,-0.000122,-0.000244,-65.917969,10.986328,-80.566406,86,0.000000,0
100,0,1773659056578,0,0.000977,0.000000,-0.000244,-29.296875,9.765625,-67.138672,86,0.000000,0
100,0,1773659056580,0,0.000977,0.000000,0.000000,-19.531250,6.103516,-2.001348,86,0.000000,0
100,0,1773659056581,0,0.000854,0.000000,0.000000,-6.103516,-1.220703,-1.937433,86,0.000000,0
100,0,1773659056627,0,0.000977,0.000000,-0.000244,-7.324219,0.000000,-46.386719,86,0.000000,0
100,0,1773659056628,0,0.000854,0.000122,-0.000244,-50.048828,9.765625,-35.400391,86,0.000000,0
100,0,1773659056630,0,0.000854,0.000000,-0.000244,-54.931641,12.207031,-1.575243,86,0.000000,0
100,0,1773659056675,0,0.000854,0.000000,-0.000122,-45.166016,13.427734,-1.575243,86,0.000000,0
100,0,1773659056675,0,0.000977,0.000000,-0.000122,-24.414062,26.855469,-1.681769,86,0.000000,0
100,0,1773659056678,0,0.000854,0.000000,-0.000122,-13.427734,26.855469,-43.945312,86,0.000000,0
100,0,1773659056724,0,0.000854,0.000000,-0.000244,-14.648438,21.972656,-1.873517,86,0.000000,0
100,0,1773659056726,0,0.000854,0.000000,-0.000244,-25.634766,21.972656,-1.937433,86,0.000000,0
100,0,1773659056727,0,0.000977,0.000000,-0.000122,-25.634766,28.076172,-57.373047,86,0.000000,0
100,0,1773659056772,0,0.000854,0.000000,-0.000122,-12.207031,30.517578,-69.580078,86,0.000000,0
100,0,1773659056773,0,0.000977,0.000000,0.000000,-1.220703,31.738281,-2.342233,86,0.000000,0
100,0,1773659056775,0,0.000977,0.000000,-0.000122,-7.324219,35.400391,-2.427454,86,0.000000,0
100,0,1773659056821,0,0.000977,0.000000,-0.000122,-6.103516,34.179688,-2.533981,86,0.000000,0
100,0,1773659056822,0,0.000977,0.000000,-0.000122,-3.662109,32.958984,-93.994141,86,0.000000,0
100,0,1773659056823,0,0.000977,0.000122,-0.000122,-6.103516,30.517578,-96.435547,86,0.000000,0
100,0,1773659056870,0,0.001099,0.000000,-0.000122,-7.324219,29.296875,-2.789644,86,0.000000,0
100,0,1773659056870,0,0.001099,0.000000,-0.000122,0.000000,29.296875,-2.917476,86,0.000000,0
100,0,1773659056872,0,0.001099,0.000122,-0.000122,2.441406,30.517578,-2.960087,86,0.000000,0
100,0,1773659056918,0,0.001221,0.000122,0.000000,-7.324219,34.179688,-119.628906,86,0.000000,0
100,0,1773659056921,0,0.001221,0.000122,0.000000,-12.207031,37.841797,-3.258361,86,0.000000,0
100,0,1773659056922,0,0.001221,0.000000,0.000000,-18.310547,39.062500,-137.939453,86,0.000000,0
100,0,1773659056970,0,0.001343,0.000000,0.000000,-29.296875,43.945312,-151.367188,86,0.000000,0
100,0,1773659056972,0,0.001343,0.000000,-0.000122,-51.269531,47.607422,-164.794922,86,0.000000,0
100,0,1773659056974,0,0.001343,0.000000,-0.000244,-72.021484,47.607422,-169.677734,86,0.000000,0
100,0,1773659057017,0,0.001587,0.000000,-0.000244,-136.718750,48.828125,-4.131877,86,0.000000,0
100,0,1773659057018,0,0.001709,-0.000366,-0.000366,-185.546875,48.828125,-4.238404,86,0.000000,0
100,0,1773659057019,0,0.001709,-0.000610,-0.000366,-196.533203,48.828125,-4.259709,86,0.000000,0
100,0,1773659057065,0,0.001587,-0.000732,-0.000610,-151.367188,41.503906,-4.451457,86,0.000000,0
100,0,1773659057065,0,0.001709,0.000366,-0.000366,-54.931641,34.179688,-4.643205,86,0.000000,0
100,0,1773659057067,0,0.001831,0.000610,-0.000244,-47.607422,47.607422,-4.472762,86,0.000000,0
100,0,1773659057113,0,0.001831,0.000366,-0.000366,-85.449219,50.048828,-175.781250,86,0.000000,0
100,0,1773659057114,0,0.000977,-0.000488,-0.000610,-95.214844,37.841797,-2.960087,86,0.000000,0
100,0,1773659057116,0,0.000610,-0.000732,0.000000,-111.083984,41.503906,-2.171791,86,0.000000,0
100,0,1773659057163,0,0.000488,0.000366,-0.000488,-14.648438,40.283203,-2.512676,86,0.000000,0
100,0,1773659057165,0,0.000366,0.000122,-0.000244,-36.621094,7.324219,-1.085221,86,0.000000,0
100,0,1773659057167,0,0.000000,-0.000122,-0.000488,-84.228516,-30.517578,-0.573894,86,0.000000,0
100,0,1773659057262,0,0.000244,-0.000732,0.000000,-103.759766,-34.179688,87.890625,86,0.000000,0
100,0,1773659057264,0,0.000122,-0.000488,0.000000,-1.220703,-34.179688,122.070312,86,0.000000,0
100,0,1773659057265,0,0.000122,-0.000244,0.000000,35.400391,-61.035156,140.380859,86,0.000000,0
100,0,1773659057266,0,0.000244,0.000000,-0.000122,25.634766,-89.111328,179.443359,86,0.000000,0
100,0,1773659057309,0,0.000366,-0.000366,0.000000,64.697266,-126.953125,244.140625,86,0.000000,0
100,0,1773659057310,0,0.000732,-0.000122,0.000000,126.953125,-153.808594,4.539375,86,0.000000,0
100,0,1773659057315,0,0.000732,-0.000122,0.000000,133.056641,-157.470703,334.472656,86,0.000000,0
100,0,1773659057358,0,0.000977,-0.000122,0.000000,126.953125,-156.250000,5.476808,86,0.000000,0
100,0,1773659057358,0,0.001343,-0.000122,0.000000,109.863281,-144.042969,6.073356,86,0.000000,0
100,0,1773659057361,0,0.001465,-0.000122,0.000000,102.539062,-136.718750,418.701172,86,0.000000,0
100,0,1773659057407,0,0.001831,-0.000244,0.000000,109.863281,-128.173828,440.673828,86,0.000000,0
100,0,1773659057409,0,0.001831,-0.000244,-0.000122,168.457031,-118.408203,6.925568,86,0.000000,0
100,0,1773659057410,0,0.001831,0.000000,-0.000244,201.416016,-104.980469,450.439453,86,0.000000,0
100,0,1773659057457,0,0.001831,0.000732,-0.000488,178.222656,-73.242188,422.363281,86,0.000000,0
100,0,1773659057459,0,0.001831,0.000854,0.000000,162.353516,-43.945312,372.314453,86,0.000000,0
100,0,1773659057459,0,0.001831,0.001221,-0.000244,145.263672,-42.724609,332.031250,86,0.000000,0
100,0,1773659057506,0,0.001465,0.001831,-0.000488,-42.724609,-75.683594,242.919922,86,0.000000,0
100,0,1773659057508,0,0.001099,0.001831,0.000122,-155.029297,-26.855469,108.642578,86,0.000000,0
100,0,1773659057509,0,0.001099,0.001709,0.000000,-135.498047,-7.324219,46.386719,86,0.000000,0
100,0,1773659057553,0,0.001099,0.001221,0.000000,-120.849609,40.283203,-2.704423,86,0.000000,0
100,0,1773659057554,0,0.001099,0.000977,0.000000,-65.917969,52.490234,-190.429688,86,0.000000,0
100,0,1773659057556,0,0.001343,0.000732,-0.000488,-59.814453,39.062500,-4.771036,86,0.000000,0
100,0,1773659057601,0,0.001343,-0.001465,-0.000366,-23.193359,65.917969,-187.988281,86,0.000000,0
100,0,1773659057602,0,0.001587,-0.001465,0.000732,42.724609,74.462891,-4.238404,86,0.000000,0
100,0,1773659057603,0,0.001831,0.000000,0.000488,164.794922,59.814453,-5.005394,86,0.000000,0
100,0,1773659057652,0,0.001831,0.001221,-0.000854,172.119141,-18.310547,-5.857606,86,0.000000,0
100,0,1773659057652,0,0.000854,0.000244,-0.000244,87.890625,-40.283203,-5.516721,86,0.000000,0
100,0,1773659057654,0,0.000244,-0.000122,0.000000,100.097656,-39.062500,-4.643205,86,0.000000,0
100,0,1773659057698,0,0.000977,0.000732,-0.000244,108.642578,-10.986328,-175.781250,86,0.000000,0
100,0,1773659057699,0,0.001343,0.000732,0.000000,-80.566406,17.089844,-3.215750,86,0.000000,0
100,0,1773659057701,0,0.001221,0.000244,0.000000,-102.539062,40.283203,-2.917476,86,0.000000,0
100,0,1773659057748,0,0.000854,-0.000122,-0.000244,-59.814453,26.855469,-2.384844,86,0.000000,0
100,0,1773659057749,0,0.000854,0.000000,-0.000122,-29.296875,28.076172,-63.476562,86,0.000000,0
100,0,1773659057752,0,0.000977,0.000000,0.000000,-29.296875,24.414062,-59.814453,86,0.000000,0
100,0,1773659057798,0,0.000977,-0.000122,0.000000,3.662109,6.103516,-53.710938,86,0.000000,0
100,0,1773659057799,0,0.000977,0.000000,-0.000122,30.517578,2.441406,-50.048828,86,0.000000,0
100,0,1773659057800,0,0.000977,0.000122,-0.000244,3.662109,9.765625,-1.809601,86,0.000000,0
100,0,1773659057844,0,0.000854,0.000000,-0.000244,-40.283203,13.427734,-1.617853,86,0.000000,0
100,0,1773659057847,0,0.000854,0.000000,-0.000122,-50.048828,13.427734,-34.179688,86,0.000000,0
100,0,1773659057848,0,0.000977,0.000000,0.000000,-51.269531,17.089844,-36.621094,86,0.000000,0
100,0,1773659057894,0,0.000977,-0.000122,0.000000,-6.103516,14.648438,-1.788296,86,0.000000,0
100,0,1773659057894,0,0.000977,0.000000,-0.000122,8.544922,15.869141,-1.852211,86,0.000000,0
100,0,1773659057897,0,0.000977,0.000122,-0.000122,-3.662109,17.089844,-1.852211,86,0.000000,0
100,0,1773659057942,0,0.000854,0.000000,-0.000244,-29.296875,17.089844,-1.916127,86,0.000000,0
100,0,1773659057943,0,0.000977,0.000000,-0.000122,-34.179688,19.531250,-1.980043,86,0.000000,0
100,0,1773659057944,0,0.000977,0.000000,-0.000122,-28.076172,21.972656,-2.065264,86,0.000000,0
100,0,1773659057991,0,0.000977,0.000000,0.000000,-14.648438,25.634766,-68.359375,86,0.000000,0
100,0,1773659057993,0,0.000977,0.000000,-0.000122,-18.310547,25.634766,-2.299623,86,0.000000,0
100,0,1773659057993,0,0.000977,0.000000,0.000000,-15.869141,25.634766,-2.342233,86,0.000000,0
100,0,1773659058040,0,0.000977,0.000000,0.000000,-8.544922,25.634766,-2.470065,86,0.000000,0
100,0,1773659058040,0,0.001099,0.000000,-0.000122,-8.544922,25.634766,-2.619202,86,0.000000,0
100,0,1773659058041,0,0.001099,0.000000,-0.000122,-9.765625,28.076172,-2.725729,86,0.000000,0
100,0,1773659058089,0,0.001221,0.000000,-0.000122,-12.207031,32.958984,-2.874866,86,0.000000,0
100,0,1773659058089,0,0.001221,0.000000,0.000000,-26.855469,36.621094,-3.066613,86,0.000000,0
100,0,1773659058091,0,0.001221,0.000000,0.000000,-24.414062,39.062500,-3.194445,86,0.000000,0
100,0,1773659058140,0,0.001221,0.000000,0.000000,-32.958984,45.166016,-144.042969,86,0.000000,0
100,0,1773659058142,0,0.001221,0.000000,-0.000122,-35.400391,51.269531,-163.574219,86,0.000000,0
100,0,1773659058142,0,0.001343,0.000000,-0.000122,-46.386719,52.490234,-4.025351,86,0.000000,0
100,0,1773659058188,0,0.001465,0.000000,-0.000244,-74.462891,56.152344,-194.091797,86,0.000000,0
100,0,1773659058189,0,0.001709,-0.000122,-0.000366,-102.539062,56.152344,-4.664510,86,0.000000,0
100,0,1773659058191,0,0.001831,-0.000244,-0.000488,-120.849609,56.152344,-4.707120,86,0.000000,0
100,0,1773659058237,0,0.001831,-0.000488,-0.000488,-139.160156,51.269531,-213.623047,86,0.000000,0
100,0,1773659058237,0,0.001465,-0.000366,-0.000488,-129.394531,39.062500,-208.740234,86,0.000000,0
100,0,1773659058238,0,0.001465,0.000000,-0.000366,-98.876953,36.621094,-209.960938,86,0.000000,0
100,0,1773659058283,0,0.001587,0.000366,-0.000488,-59.814453,37.841797,-4.366236,86,0.000000,0
100,0,1773659058284,0,0.001587,0.000244,-0.000244,-56.152344,39.062500,-3.897519,86,0.000000,0
100,0,1773659058285,0,0.001099,0.000000,-0.000488,-78.125000,26.855469,-3.343582,86,0.000000,0
100,0,1773659058338,0,0.000610,-0.000122,0.000000,-139.160156,53.710938,-52.490234,86,0.000000,0
100,0,1773659058339,0,0.000122,0.000000,0.000000,-107.421875,-23.193359,-1.404800,86,0.000000,0
100,0,1773659058339,0,0.000122,0.000000,-0.000366,-122.070312,-39.062500,8.544922,86,0.000000,0
100,0,1773659058429,0,0.000122,-0.000732,-0.000122,-133.056641,-67.138672,75.683594,86,0.000000,0
100,0,1773659058432,0,0.000244,-0.000732,0.000000,-40.283203,-65.917969,104.980469,86,0.000000,0
100,0,1773659058433,0,0.000244,-0.000366,0.000000,20.751953,-87.890625,119.628906,86,0.000000,0
100,0,1773659058434,0,0.000366,0.000000,0.000000,34.179688,-115.966797,163.574219,86,0.000000,0
100,0,1773659058480,0,0.000488,-0.000244,0.000000,45.166016,-146.484375,239.257812,86,0.000000,0
100,0,1773659058482,0,0.000854,-0.000122,0.000000,76.904297,-172.119141,288.085938,86,0.000000,0
100,0,1773659058482,0,0.000854,-0.000122,0.000122,75.683594,-174.560547,4.305017,86,0.000000,0
100,0,1773659058527,0,0.000977,-0.000122,0.000000,76.904297,-172.119141,4.795039,86,0.000000,0
100,0,1773659058528,0,0.001221,0.000000,0.000122,72.021484,-162.353516,5.391587,86,0.000000,0
100,0,1773659058530,0,0.001221,0.000000,0.000000,67.138672,-159.912109,5.625945,86,0.000000,0
100,0,1773659058578,0,0.001465,-0.000122,0.000000,65.917969,-157.470703,6.073356,86,0.000000,0
100,0,1773659058579,0,0.001831,-0.000244,0.000000,84.228516,-151.367188,423.583984,86,0.000000,0
100,0,1773659058580,0,0.001831,-0.000244,0.000000,104.980469,-148.925781,6.563377,86,0.000000,0
100,0,1773659058625,0,0.001831,0.000000,-0.000122,137.939453,-135.498047,6.605988,86,0.000000,0
100,0,1773659058626,0,0.001831,0.000610,0.000000,109.863281,-103.759766,6.158577,86,0.000000,0
100,0,1773659058626,0,0.001831,0.000854,0.000000,67.138672,-80.566406,5.775082,86,0.000000,0
100,0,1773659058673,0,0.001709,0.000977,0.000000,0.000000,-37.841797,4.219796,86,0.000000,0
100,0,1773659058675,0,0.000977,0.001831,-0.000244,-59.814453,-57.373047,218.505859,86,0.000000,0
100,0,1773659058675,0,0.001099,0.001831,0.000244,-136.718750,-41.503906,153.808594,86,0.000000,0
100,0,1773659058722,0,0.000977,0.001221,0.000244,-113.525391,20.751953,-1.220703,86,0.000000,0
100,0,1773659058723,0,0.001099,0.001221,0.000122,-91.552734,40.283203,-124.511719,86,0.000000,0
100,0,1773659058727,0,0.001099,0.000977,0.000122,-93.994141,54.931641,-3.940130,86,0.000000,0
100,0,1773659058772,0,0.001343,0.000610,0.000122,-61.035156,64.697266,-4.962784,86,0.000000,0
100,0,1773659058773,0,0.001343,-0.001343,0.000000,-119.628906,57.373047,-3.918825,86,0.000000,0
100,0,1773659058774,0,0.000977,-0.001831,-0.000610,-70.800781,46.386719,-3.386192,86,0.000000,0
100,0,1773659058819,0,0.001465,-0.000977,0.000366,192.871094,59.814453,-3.940130,86,0.000000,0
100,0,1773659058822,0,0.001831,0.000977,-0.000366,164.794922,0.000000,-5.218447,86,0.000000,0
100,0,1773659058823,0,0.001831,0.000977,-0.000488,137.939453,-17.089844,-5.474111,86,0.000000,0
100,0,1773659058869,0,0.000488,0.000000,-0.000366,37.841797,-17.089844,-214.843750,86,0.000000,0
100,0,1773659058871,0,0.000244,0.000122,-0.000244,75.683594,-14.648438,-173.339844,86,0.000000,0
100,0,1773659058872,0,0.000854,0.000977,0.000000,41.503906,-4.882812,-3.940130,86,0.000000,0
100,0,1773659058918,0,0.001099,0.000244,-0.000244,-109.863281,7.324219,-118.408203,86,0.000000,0
100,0,1773659058920,0,0.000854,0.000000,-0.000122,-75.683594,18.310547,-96.435547,86,0.000000,0
100,0,1773659058922,0,0.000854,-0.000122,-0.000244,-51.269531,9.765625,-85.449219,86,0.000000,0
100,0,1773659058966,0,0.000977,0.000000,-0.000122,-9.765625,8.544922,-2.235707,86,0.000000,0
100,0,1773659058968,0,0.000977,0.000000,-0.000122,6.103516,2.441406,-59.814453,86,0.000000,0
100,0,1773659058969,0,0.000977,0.000000,-0.000122,12.207031,1.220703,-1.980043,86,0.000000,0
100,0,1773659059015,0,0.000977,0.000000,-0.000244,7.324219,0.000000,-47.607422,86,0.000000,0
100,0,1773659059017,0,0.000854,0.000000,-0.000366,-29.296875,4.882812,-36.621094,86,0.000000,0
100,0,1773659059018,0,0.000854,0.000000,-0.000244,-29.296875,4.882812,-35.400391,86,0.000000,0
100,0,1773659059066,0,0.000854,-0.000122,-0.000122,15.869141,8.544922,-1.724380,86,0.000000,0
100,0,1773659059067,0,0.000854,0.000000,-0.000122,41.503906,3.662109,-51.269531,86,0.000000,0
100,0,1773659059068,0,0.000854,0.000000,-0.000122,46.386719,1.220703,-51.269531,86,0.000000,0
100,0,1773659059113,0,0.000977,0.000122,-0.000122,7.324219,4.882812,-1.873517,86,0.000000,0
100,0,1773659059113,0,0.000854,0.000000,-0.000122,-7.324219,8.544922,-1.916127,86,0.000000,0
100,0,1773659059114,0,0.000854,0.000000,-0.000122,-2.441406,8.544922,-1.958738,86,0.000000,0
100,0,1773659059163,0,0.000854,0.000000,-0.000122,-3.662109,9.765625,-61.035156,86,0.000000,0
100,0,1773659059164,0,0.000977,0.000000,-0.000122,-7.324219,10.986328,-68.359375,86,0.000000,0
100,0,1773659059167,0,0.000854,0.000000,-0.000122,-7.324219,9.765625,-2.193096,86,0.000000,0
100,0,1773659059209,0,0.000854,0.000000,-0.000122,-12.207031,9.765625,-2.257012,86,0.000000,0
100,0,1773659059212,0,0.000977,0.000122,-0.000122,-17.089844,7.324219,-2.257012,86,0.000000,0
100,0,1773659059213,0,0.000977,0.000122,-0.000122,-18.310547,7.324219,-2.257012,86,0.000000,0
100,0,1773659059260,0,0.000977,0.000000,-0.000122,-25.634766,6.103516,-78.125000,86,0.000000,0
100,0,1773659059260,0,0.000977,0.000000,-0.000244,-28.076172,6.103516,-85.449219,86,0.000000,0
100,0,1773659059262,0,0.001099,0.000000,-0.000244,-29.296875,6.103516,-2.597897,86,0.000000,0
100,0,1773659059307,0,0.001099,0.000122,-0.000244,-41.503906,7.324219,-2.747034,86,0.000000,0
100,0,1773659059309,0,0.001099,0.000000,-0.000122,-45.166016,8.544922,-2.938781,86,0.000000,0
100,0,1773659059309,0,0.001099,0.000000,-0.000244,-43.945312,9.765625,-3.045308,86,0.000000,0
100,0,1773659059359,0,0.001099,0.000122,-0.000122,-57.373047,10.986328,-133.056641,86,0.000000,0
100,0,1773659059363,0,0.001221,0.000122,-0.000244,-69.580078,14.648438,-3.577940,86,0.000000,0
100,0,1773659059364,0,0.001221,0.000122,-0.000244,-83.007812,15.869141,-3.684466,86,0.000000,0
100,0,1773659059455,0,0.001221,0.000122,-0.000244,-112.304688,13.427734,-3.897519,86,0.000000,0
100,0,1773659059458,0,0.001465,0.000122,-0.000244,-167.236328,8.544922,-4.131877,86,0.000000,0
100,0,1773659059460,0,0.001465,0.000000,-0.000244,-191.650391,6.103516,-183.105469,86,0.000000,0
100,0,1773659059503,0,0.001709,0.000000,-0.000366,-258.789062,1.220703,-4.174488,86,0.000000,0
100,0,1773659059503,0,0.001587,0.000488,-0.000244,-111.083984,0.000000,-4.046657,86,0.000000,0
100,0,1773659059503,0,0.001465,0.000610,-0.000244,-123.291016,0.000000,-162.353516,86,0.000000,0
100,0,1773659059552,0,0.001221,0.000244,-0.000488,-148.925781,-23.193359,-134.277344,86,0.000000,0
100,0,1773659059553,0,0.000732,-0.000244,0.000122,-231.933594,-19.531250,-2.001348,86,0.000000,0
100,0,1773659059553,0,0.000366,0.000000,-0.000122,-211.181641,-18.310547,-1.958738,86,0.000000,0
100,0,1773659059601,0,0.000000,-0.000122,-0.000244,-186.767578,-119.628906,-1.170442,86,0.000000,0
100,0,1773659059602,0,0.000122,-0.000854,-0.000122,-207.519531,-131.835938,0.193096,86,0.000000,0
100,0,1773659059603,0,0.000244,-0.001099,0.000000,-166.015625,-133.056641,0.448760,86,0.000000,0
100,0,1773659059648,0,0.000244,-0.000488,0.000122,-53.710938,-173.339844,0.832255,86,0.000000,0
100,0,1773659059649,0,0.000488,-0.000122,0.000122,-47.607422,-197.753906,1.599245,86,0.000000,0
100,0,1773659059652,0,0.000488,-0.000244,0.000122,-41.503906,-206.298828,1.897519,86,0.000000,0
100,0,1773659059698,0,0.000610,-0.000488,0.000244,3.662109,-228.271484,2.621899,86,0.000000,0
100,0,1773659059698,0,0.000854,-0.000366,0.000244,40.283203,-231.933594,3.218447,86,0.000000,0
100,0,1773659059699,0,0.000854,-0.000366,0.000244,39.062500,-230.712891,3.601943,86,0.000000,0
100,0,1773659059747,0,0.001099,-0.000244,0.000366,17.089844,-230.712891,4.347628,86,0.000000,0
100,0,1773659059747,0,0.001221,-0.000122,0.000366,-7.324219,-224.609375,4.944176,86,0.000000,0
100,0,1773659059748,0,0.001221,-0.000122,0.000488,-21.972656,-216.064453,5.178534,86,0.000000,0
100,0,1773659059795,0,0.001343,-0.000244,0.000488,-34.179688,-192.871094,5.711166,86,0.000000,0
100,0,1773659059796,0,0.001587,-0.000244,0.000488,-25.634766,-166.015625,6.115966,86,0.000000,0
100,0,1773659059797,0,0.001709,-0.000244,0.000366,-23.193359,-152.587891,6.350325,86,0.000000,0
100,0,1773659059843,0,0.001831,-0.000366,0.000244,3.662109,-109.863281,6.712514,86,0.000000,0
100,0,1773659059844,0,0.001831,-0.000122,0.000122,79.345703,-113.525391,6.669904,86,0.000000,0
100,0,1773659059845,0,0.001831,0.000000,0.000122,107.421875,-106.201172,6.542072,86,0.000000,0
100,0,1773659059894,0,0.001831,0.000366,0.000122,91.552734,-75.683594,399.169922,86,0.000000,0
100,0,1773659059895,0,0.001831,0.000732,0.000122,65.917969,-30.517578,321.044922,86,0.000000,0
100,0,1773659059897,0,0.001465,0.001099,0.000000,57.373047,-23.193359,3.772385,86,0.000000,0
100,0,1773659059943,0,0.001099,0.001831,0.000000,-87.890625,-18.310547,2.046656,86,0.000000,0
100,0,1773659059945,0,0.000977,0.001587,0.000244,-163.574219,15.869141,0.022654,86,0.000000,0
100,0,1773659059947,0,0.000977,0.001221,0.000122,-141.601562,39.062500,-1.127832,86,0.000000,0
100,0,1773659059989,0,0.001099,0.000977,0.000000,-126.953125,73.242188,-130.615234,86,0.000000,0
100,0,1773659059992,0,0.001221,0.000488,-0.000122,-93.994141,87.890625,-203.857422,86,0.000000,0
100,0,1773659059992,0,0.001099,-0.000610,-0.000977,-117.187500,54.931641,-158.691406,86,0.000000,0
100,0,1773659060039,0,0.000854,-0.001831,0.000000,-114.746094,29.296875,-3.194445,86,0.000000,0
100,0,1773659060042,0,0.001465,-0.000122,0.000366,70.800781,63.476562,-3.514024,86,0.000000,0
100,0,1773659060042,0,0.001709,0.000000,-0.000122,62.255859,48.828125,-148.925781,86,0.000000,0
100,0,1773659060090,0,0.001831,0.000366,-0.000244,113.525391,9.765625,-5.175837,86,0.000000,0
100,0,1773659060092,0,0.000854,0.000488,-0.000244,65.917969,4.882812,-4.515373,86,0.000000,0
100,0,1773659060093,0,0.000488,0.000000,-0.000244,51.269531,-6.103516,-4.238404,86,0.000000,0
100,0,1773659060138,0,0.000610,0.000366,-0.000244,81.787109,-19.531250,-145.263672,86,0.000000,0
100,0,1773659060139,0,0.001221,0.000488,-0.000244,-40.283203,0.000000,-2.810950,86,0.000000,0
100,0,1773659060139,0,0.000854,0.000244,-0.000366,-78.125000,3.662109,-2.555286,86,0.000000,0
100,0,1773659060184,0,0.000854,0.000000,-0.000366,-87.890625,10.986328,-2.150486,86,0.000000,0
100,0,1773659060187,0,0.000977,0.000000,-0.000244,-76.904297,12.207031,-1.958738,86,0.000000,0
100,0,1773659060188,0,0.000854,0.000000,-0.000244,-63.476562,6.103516,-1.916127,86,0.000000,0
100,0,1773659060235,0,0.000854,0.000000,-0.000244,-17.089844,-6.103516,-50.048828,86,0.000000,0
100,0,1773659060237,0,0.000854,0.000000,-0.000244,-13.427734,-8.544922,-45.166016,86,0.000000,0
100,0,1773659060238,0,0.000977,0.000000,-0.000244,-14.648438,-7.324219,-42.724609,86,0.000000,0
100,0,1773659060284,0,0.000854,0.000000,-0.000366,-17.089844,-2.441406,-1.639159,86,0.000000,0
100,0,1773659060285,0,0.000854,0.000000,-0.000366,-37.841797,4.882812,-1.553937,86,0.000000,0
100,0,1773659060287,0,0.000854,0.000000,-0.000244,-39.062500,3.662109,-1.553937,86,0.000000,0
100,0,1773659060332,0,0.000854,0.000000,-0.000244,-25.634766,-1.220703,-1.617853,86,0.000000,0
100,0,1773659060337,0,0.000854,0.000000,-0.000244,-20.751953,-3.662109,-40.283203,86,0.000000,0
100,0,1773659060338,0,0.000854,0.000000,-0.000244,-17.089844,-6.103516,-41.503906,86,0.000000,0
100,0,1773659060379,0,0.000854,0.000000,-0.000366,-34.179688,0.000000,-41.503906,86,0.000000,0
100,0,1773659060380,0,0.000854,0.000000,-0.000244,-41.503906,1.220703,-42.724609,86,0.000000,0
100,0,1773659060381,0,0.000854,0.000000,-0.000244,-39.062500,0.000000,-43.945312,86,0.000000,0
100,0,1773659060433,0,0.000854,0.000000,-0.000244,-34.179688,-1.220703,-1.852211,86,0.000000,0
100,0,1773659060434,0,0.000854,0.000000,-0.000244,-34.179688,-1.220703,-52.490234,86,0.000000,0
100,0,1773659060435,0,0.000854,0.000000,-0.000244,-35.400391,-1.220703,-1.937433,86,0.000000,0
100,0,1773659060477,0,0.000977,0.000122,-0.000244,-42.724609,3.662109,-1.958738,86,0.000000,0
100,0,1773659060478,0,0.000977,0.000000,-0.000244,-46.386719,17.089844,-2.065264,86,0.000000,0
100,0,1773659060480,0,0.000977,0.000000,-0.000244,-46.386719,20.751953,-2.086570,86,0.000000,0
100,0,1773659060525,0,0.000854,0.000000,-0.000244,-50.048828,25.634766,-2.257012,86,0.000000,0
100,0,1773659060528,0,0.000977,0.000000,-0.000244,-39.062500,21.972656,-2.448760,86,0.000000,0
100,0,1773659060531,0,0.000977,0.000000,-0.000366,-39.062500,17.089844,-87.890625,86,0.000000,0
100,0,1773659060578,0,0.001099,0.000122,-0.000366,-45.166016,12.207031,-102.539062,86,0.000000,0
100,0,1773659060579,0,0.001099,0.000122,-0.000366,-58.593750,9.765625,-3.066613,86,0.000000,0
100,0,1773659060580,0,0.001099,0.000122,-0.000244,-68.359375,7.324219,-3.194445,86,0.000000,0
100,0,1773659060622,0,0.001221,0.000122,-0.000244,-87.890625,6.103516,-3.428803,86,0.000000,0
100,0,1773659060672,0,0.001221,0.000122,-0.000244,-123.291016,4.882812,-3.641856,86,0.000000,0
100,0,1773659060672,0,0.001343,0.000122,-0.000244,-146.484375,2.441406,-3.769688,86,0.000000,0
100,0,1773659060673,0,0.001465,0.000122,-0.000366,-203.857422,-3.662109,-4.004045,86,0.000000,0
100,0,1773659060674,0,0.001587,0.000000,-0.000366,-279.541016,-14.648438,-4.089267,86,0.000000,0
100,0,1773659060722,0,0.001831,0.000000,-0.000610,-379.638672,-18.310547,-167.236328,86,0.000000,0
100,0,1773659060723,0,0.001343,-0.000610,-0.000488,-266.113281,-36.621094,-185.546875,86,0.000000,0
100,0,1773659060724,0,0.001465,0.000000,-0.000244,-190.429688,-30.517578,-201.416016,86,0.000000,0
100,0,1773659060769,0,0.001709,0.000854,0.000000,-207.519531,1.220703,-174.560547,86,0.000000,0
100,0,1773659060770,0,0.001343,0.000488,-0.000488,-213.623047,-18.310547,-162.353516,86,0.000000,0
100,0,1773659060772,0,0.000977,0.000122,-0.000488,-222.167969,-40.283203,-3.300971,86,0.000000,0
100,0,1773659060820,0,0.000366,0.000000,-0.000244,-228.271484,-47.607422,-2.299623,86,0.000000,0
100,0,1773659060867,0,0.000122,-0.000244,-0.000122,-209.960938,-122.070312,-1.340885,86,0.000000,0
100,0,1773659060868,0,0.000122,-0.000610,-0.000244,-236.816406,-115.966797,-0.531284,86,0.000000,0
100,0,1773659060868,0,0.000122,-0.000977,0.000000,-178.222656,-140.380859,0.363539,86,0.000000,0
100,0,1773659060869,0,0.000244,-0.000610,0.000122,-92.773438,-168.457031,0.704423,86,0.000000,0
100,0,1773659060915,0,0.000488,-0.000244,0.000244,-62.255859,-187.988281,1.279666,86,0.000000,0
100,0,1773659060918,0,0.000610,-0.000488,0.000244,-13.427734,-205.078125,2.238404,86,0.000000,0
100,0,1773659060918,0,0.000732,-0.000488,0.000244,15.869141,-208.740234,2.579288,86,0.000000,0
100,0,1773659060965,0,0.000854,-0.000366,0.000244,46.386719,-212.402344,245.361328,86,0.000000,0
100,0,1773659060967,0,0.000977,-0.000244,0.000244,42.724609,-209.960938,288.085938,86,0.000000,0
100,0,1773659060968,0,0.001099,-0.000122,0.000244,31.738281,-207.519531,4.411543,86,0.000000,0
100,0,1773659061013,0,0.001221,-0.000122,0.000366,-2.441406,-194.091797,343.017578,86,0.000000,0
100,0,1773659061014,0,0.001343,-0.000244,0.000366,-24.414062,-179.443359,5.562029,86,0.000000,0
100,0,1773659061015,0,0.001343,-0.000244,0.000366,-20.751953,-167.236328,5.775082,86,0.000000,0
100,0,1773659061064,0,0.001587,-0.000244,0.000244,-15.869141,-150.146484,412.597656,86,0.000000,0
100,0,1773659061065,0,0.001831,-0.000244,0.000244,-9.765625,-125.732422,429.687500,86,0.000000,0
100,0,1773659061065,0,0.001831,-0.000244,0.000244,8.544922,-115.966797,6.520767,86,0.000000,0
100,0,1773659061111,0,0.001831,0.000000,0.000000,68.359375,-108.642578,6.392935,86,0.000000,0
100,0,1773659061113,0,0.001831,0.000122,0.000000,103.759766,-95.214844,6.009440,86,0.000000,0
100,0,1773659061114,0,0.001831,0.000488,0.000122,104.980469,-86.669922,5.604640,86,0.000000,0
100,0,1773659061160,0,0.001831,0.000732,0.000000,100.097656,-61.035156,4.411543,86,0.000000,0
100,0,1773659061162,0,0.001099,0.001465,-0.000244,32.958984,-40.283203,207.519531,86,0.000000,0
100,0,1773659061163,0,0.001221,0.001831,0.000000,-35.400391,-23.193359,161.132812,86,0.000000,0
100,0,1773659061209,0,0.000977,0.001465,0.000000,-107.421875,10.986328,28.076172,86,0.000000,0
100,0,1773659061212,0,0.001099,0.001099,0.000000,-112.304688,52.490234,-85.449219,86,0.000000,0
100,0,1773659061214,0,0.001099,0.000854,0.000000,-104.980469,64.697266,-128.173828,86,0.000000,0
100,0,1773659061257,0,0.001221,0.000000,-0.000732,-89.111328,45.166016,-169.677734,86,0.000000,0
100,0,1773659061258,0,0.001099,-0.001343,-0.000854,-103.759766,46.386719,-3.364887,86,0.000000,0
100,0,1773659061259,0,0.001343,-0.001831,0.000366,-108.642578,51.269531,-3.322276,86,0.000000,0
100,0,1773659061307,0,0.001709,-0.000366,0.000488,87.890625,62.255859,-3.918825,86,0.000000,0
100,0,1773659061308,0,0.001831,0.000977,-0.000244,52.490234,14.648438,-4.664510,86,0.000000,0
100,0,1773659061308,0,0.001709,0.000732,0.000000,-1.220703,15.869141,-4.664510,86,0.000000,0
100,0,1773659061355,0,0.000366,-0.000488,-0.000366,51.269531,-9.765625,-4.131877,86,0.000000,0
100,0,1773659061357,0,0.000732,0.000366,-0.000244,141.601562,-31.738281,-3.727077,86,0.000000,0
100,0,1773659061358,0,0.000977,0.000732,-0.000366,80.566406,-2.441406,-3.258361,86,0.000000,0
100,0,1773659061404,0,0.001221,0.000244,-0.000244,-75.683594,30.517578,-107.421875,86,0.000000,0
100,0,1773659061407,0,0.000732,0.000122,-0.000244,-113.525391,23.193359,-2.470065,86,0.000000,0
100,0,1773659061408,0,0.000977,0.000000,-0.000244,-126.953125,28.076172,-75.683594,86,0.000000,0
100,0,1773659061453,0,0.000854,-0.000122,-0.000122,-92.773438,15.869141,-63.476562,86,0.000000,0
100,0,1773659061454,0,0.000854,-0.000244,-0.000122,9.765625,-6.103516,-65.917969,86,0.000000,0
100,0,1773659061455,0,0.000854,-0.000122,-0.000244,40.283203,-13.427734,-2.171791,86,0.000000,0
100,0,1773659061502,0,0.000977,0.000122,-0.000366,26.855469,0.000000,-59.814453,86,0.000000,0
100,0,1773659061503,0,0.000854,0.000122,-0.000366,-32.958984,9.765625,-45.166016,86,0.000000,0
100,0,1773659061504,0,0.000854,0.000122,-0.000366,-56.152344,13.427734,-1.681769,86,0.000000,0
100,0,1773659061550,0,0.000854,0.000000,-0.000122,-63.476562,10.986328,-1.639159,86,0.000000,0
100,0,1773659061553,0,0.000854,-0.000122,-0.000122,-19.531250,3.662109,-1.766990,86,0.000000,0
100,0,1773659061553,0,0.000854,0.000000,-0.000122,-6.103516,2.441406,-1.830906,86,0.000000,0
100,0,1773659061600,0,0.000854,0.000122,-0.000244,-13.427734,3.662109,-1.830906,86,0.000000,0
100,0,1773659061601,0,0.000854,0.000122,-0.000366,-45.166016,10.986328,-1.766990,86,0.000000,0
100,0,1773659061602,0,0.000854,0.000000,-0.000244,-48.828125,10.986328,-43.945312,86,0.000000,0
100,0,1773659061649,0,0.000854,0.000000,-0.000122,-37.841797,13.427734,-1.830906,86,0.000000,0
100,0,1773659061650,0,0.000977,0.000000,-0.000122,-28.076172,24.414062,-1.916127,86,0.000000,0
100,0,1773659061650,0,0.000977,0.000122,-0.000244,-31.738281,29.296875,-1.937433,86,0.000000,0
100,0,1773659061698,0,0.000854,0.000000,-0.000244,-39.062500,34.179688,-2.022654,86,0.000000,0
100,0,1773659061698,0,0.000854,0.000000,-0.000122,-31.738281,37.841797,-2.065264,86,0.000000,0
100,0,1773659061699,0,0.000854,0.000000,-0.000244,-25.634766,37.841797,-2.107875,86,0.000000,0
100,0,1773659061746,0,0.000977,0.000122,-0.000244,-18.310547,30.517578,-2.193096,86,0.000000,0
100,0,1773659061747,0,0.000977,0.000122,-0.000244,-28.076172,25.634766,-2.278317,86,0.000000,0
100,0,1773659061748,0,0.000977,0.000122,-0.000244,-26.855469,25.634766,-2.363539,86,0.000000,0
100,0,1773659061793,0,0.001099,0.000000,-0.000244,-26.855469,25.634766,-2.533981,86,0.000000,0
100,0,1773659061797,0,0.001099,0.000122,-0.000122,-29.296875,25.634766,-95.214844,86,0.000000,0
100,0,1773659061797,0,0.001221,0.000122,-0.000122,-34.179688,26.855469,-2.768339,86,0.000000,0
100,0,1773659061843,0,0.001221,0.000122,-0.000122,-39.062500,28.076172,-3.002697,86,0.000000,0
100,0,1773659061843,0,0.001221,0.000000,-0.000122,-54.931641,30.517578,-3.237055,86,0.000000,0
100,0,1773659061844,0,0.001221,0.000000,-0.000122,-58.593750,31.738281,-3.364887,86,0.000000,0
100,0,1773659061894,0,0.001343,0.000122,-0.000122,-78.125000,34.179688,-3.641856,86,0.000000,0
100,0,1773659061895,0,0.001343,0.000000,-0.000122,-114.746094,34.179688,-164.794922,86,0.000000,0
100,0,1773659061897,0,0.001343,0.000000,-0.000122,-140.380859,34.179688,-172.119141,86,0.000000,0
100,0,1773659061943,0,0.001587,-0.000122,-0.000244,-179.443359,31.738281,-4.195793,86,0.000000,0
100,0,1773659061944,0,0.001709,-0.000366,-0.000488,-229.492188,28.076172,-183.105469,86,0.000000,0
100,0,1773659061946,0,0.001709,-0.000488,-0.000488,-246.582031,25.634766,-183.105469,86,0.000000,0
100,0,1773659061989,0,0.001465,-0.000732,-0.000610,-178.222656,12.207031,-4.472762,86,0.000000,0
100,0,1773659061989,0,0.001587,0.000366,-0.000244,-61.035156,17.089844,-4.643205,86,0.000000,0
100,0,1773659061991,0,0.001709,0.000488,-0.000244,-85.449219,30.517578,-4.259709,86,0.000000,0
100,0,1773659062037,0,0.001465,0.000244,-0.000244,-102.539062,17.089844,-3.727077,86,0.000000,0
100,0,1773659062038,0,0.000732,-0.000366,-0.000122,-163.574219,-12.207031,-2.427454,86,0.000000,0
100,0,1773659062039,0,0.000610,-0.000244,0.000366,-202.636719,24.414062,-1.532632,86,0.000000,0
100,0,1773659062088,0,0.000000,0.000244,-0.000366,-122.070312,-65.917969,-1.724380,86,0.000000,0
100,0,1773659062089,0,0.000122,0.000000,-0.000366,-152.587891,-83.007812,-0.595200,86,0.000000,0
100,0,1773659062090,0,0.000000,-0.000366,-0.000366,-189.208984,-108.642578,-0.105178,86,0.000000,0
100,0,1773659062137,0,0.000244,-0.000977,0.000000,-153.808594,-112.304688,0.896171,86,0.000000,0
100,0,1773659062138,0,0.000244,-0.000366,0.000000,-31.738281,-134.277344,1.535329,86,0.000000,0
100,0,1773659062138,0,0.000366,-0.000122,0.000000,-21.972656,-150.146484,1.812298,86,0.000000,0
100,0,1773659062184,0,0.000488,-0.000122,0.000000,-24.414062,-174.560547,196.533203,86,0.000000,0
100,0,1773659062185,0,0.000610,-0.000366,0.000000,-3.662109,-189.208984,3.090615,86,0.000000,0
100,0,1773659062187,0,0.000732,-0.000366,0.000000,14.648438,-195.312500,3.367584,86,0.000000,0
100,0,1773659062232,0,0.000854,-0.000244,0.000122,46.386719,-197.753906,4.006743,86,0.000000,0
100,0,1773659062233,0,0.000977,-0.000244,0.000122,57.373047,-197.753906,4.667207,86,0.000000,0
100,0,1773659062234,0,0.001099,-0.000244,0.000122,61.035156,-192.871094,4.901565,86,0.000000,0
100,0,1773659062283,0,0.001221,-0.000122,0.000122,69.580078,-178.222656,5.327671,86,0.000000,0
100,0,1773659062285,0,0.001465,0.000000,0.000000,58.593750,-167.236328,388.183594,86,0.000000,0
100,0,1773659062287,0,0.001465,-0.000122,0.000000,56.152344,-159.912109,401.611328,86,0.000000,0
100,0,1773659062379,0,0.001831,-0.000244,0.000000,63.476562,-148.925781,6.392935,86,0.000000,0
100,0,1773659062380,0,0.001831,-0.000244,0.000000,93.994141,-142.822266,6.542072,86,0.000000,0
100,0,1773659062382,0,0.001831,-0.000122,-0.000122,118.408203,-142.822266,6.520767,86,0.000000,0
100,0,1773659062428,0,0.001831,0.000488,0.000000,122.070312,-115.966797,6.115966,86,0.000000,0
100,0,1773659062430,0,0.000977,0.001587,0.000366,-72.021484,-25.634766,0.342233,86,0.000000,0
100,0,1773659062432,0,0.001099,0.001465,0.000244,-48.828125,0.000000,-0.914779,86,0.000000,0
100,0,1773659062475,0,0.001221,0.001099,0.000122,-35.400391,40.283203,-123.291016,86,0.000000,0
100,0,1773659062477,0,0.001221,0.000854,0.000122,-7.324219,61.035156,-208.740234,86,0.000000,0
100,0,1773659062479,0,0.001343,0.000732,0.000122,2.441406,64.697266,-236.816406,86,0.000000,0
100,0,1773659062524,0,0.001343,-0.001343,0.000000,-42.724609,63.476562,-4.557983,86,0.000000,0
100,0,1773659062525,0,0.001465,-0.001343,0.000610,87.890625,69.580078,-3.961435,86,0.000000,0
100,0,1773659062525,0,0.001709,-0.000488,0.000732,147.705078,75.683594,-4.089267,86,0.000000,0
100,0,1773659062572,0,0.001831,0.001099,-0.000244,141.601562,1.220703,-5.154531,86,0.000000,0
100,0,1773659062574,0,0.001465,0.000977,-0.000244,19.531250,0.000000,-5.324974,86,0.000000,0
